trial_type,t_frequency,targetPos,Gap,arrayColor,targetOri,f1_frequency,TargetFile,stimuliFile,pingFile,f1_pos,f2_frequency,f2_pos,f3_frequency,f3_pos,f4_pos,f5_pos,Slblock,corrAns,trials_p.thisRepN,trials_p.thisTrialN,trials_p.thisN,trials_p.thisIndex,trials_e.thisRepN,trials_e.thisTrialN,trials_e.thisN,trials_e.thisIndex,thisRow.t,notes,FIX,PINGdur,epoch,key_resp.keys,key_resp.corr,targetX,targetY,filler1X,filler1Y,filler2X,filler2Y,filler3X,filler3Y,filler4X,filler4Y,filler5X,filler5Y,pingID,ID,key_resp.rt,completed_trials,trial_count,participant,learning,session_nr,gender,age,handedness,date,expName,
ping,lowC,downRight,DOWN,red,l,lowA,Stimuli\red_bar1.png,Stimuli\red_bar1.png,Stimuli\ping.png,midRight,lowB,downLeft,high,midLeft,upLeft,upRight,1,m,0,0,0,14,,,,,,,0.5,0.7,practice,None,0,7.16,-7.16,10.14,0,-7.16,-7.16,-10.14,0,-7.16,7.16,7.16,7.16,2,242,,,,10,SL,2,F,28,R,2025-05-13_13h58.29.309,RewSL_SL_EEG,
ping,lowB,downLeft,UP,red,l,lowA,Stimuli\red_bar1.png,Stimuli\red_bar1.png,Stimuli\ping.png,midRight,high,midLeft,lowC,downRight,upLeft,upRight,1,z,0,1,1,8,,,,,,,0.5,0.7,practice,z,1,-7.16,-7.16,10.14,0,-10.14,0,7.16,-7.16,-7.16,7.16,7.16,7.16,2,132,0.8459036999993259,,,10,SL,2,F,28,R,2025-05-13_13h58.29.309,RewSL_SL_EEG,
ping,lowB,downLeft,DOWN,red,l,lowA,Stimuli\red_bar1.png,Stimuli\red_bar1.png,Stimuli\ping.png,midRight,high,midLeft,lowC,downRight,upLeft,upRight,1,m,0,2,2,10,,,,,,,0.4,0.7,practice,m,1,-7.16,-7.16,10.14,0,-10.14,0,7.16,-7.16,-7.16,7.16,7.16,7.16,2,232,0.7994179999950575,,,10,SL,2,F,28,R,2025-05-13_13h58.29.309,RewSL_SL_EEG,
ping,high,midLeft,DOWN,red,r,lowA,Stimuli\red_bar1.png,Stimuli\red_bar1.png,Stimuli\ping.png,midRight,lowB,downLeft,lowC,downRight,upLeft,upRight,1,m,0,3,3,2,,,,,,,0.5,0.6,practice,z,0,-10.14,0,10.14,0,-7.16,-7.16,7.16,-7.16,-7.16,7.16,7.16,7.16,2,212,0.8419817000103649,,,10,SL,2,F,28,R,2025-05-13_13h58.29.309,RewSL_SL_EEG,
ping,high,midLeft,UP,red,r,lowA,Stimuli\red_bar1.png,Stimuli\red_bar1.png,Stimuli\ping.png,midRight,lowB,downLeft,lowC,downRight,upLeft,upRight,1,z,0,4,4,0,,,,,,,0.5,0.6,practice,z,1,-10.14,0,10.14,0,-7.16,-7.16,7.16,-7.16,-7.16,7.16,7.16,7.16,2,112,0.6659148000035202,,,10,SL,2,F,28,R,2025-05-13_13h58.29.309,RewSL_SL_EEG,
ping,lowA,midRight,UP,red,l,high,Stimuli\red_bar1.png,Stimuli\red_bar1.png,Stimuli\ping.png,midLeft,lowB,downLeft,lowC,downRight,upLeft,upRight,1,z,0,5,5,4,,,,,,,0.6,0.7,practice,z,1,10.14,0,-10.14,0,-7.16,-7.16,7.16,-7.16,-7.16,7.16,7.16,7.16,2,122,0.658524700003909,,,10,SL,2,F,28,R,2025-05-13_13h58.29.309,RewSL_SL_EEG,
ping,lowC,downRight,UP,green,l,lowA,Stimuli\green_bar1.png,Stimuli\green_bar1.png,Stimuli\ping.png,midRight,lowB,downLeft,high,midLeft,upLeft,upRight,1,z,0,6,6,13,,,,,,,0.5,0.8,practice,z,1,7.16,-7.16,10.14,0,-7.16,-7.16,-10.14,0,-7.16,7.16,7.16,7.16,2,142,0.7367770999990171,,,10,SL,2,F,28,R,2025-05-13_13h58.29.309,RewSL_SL_EEG,
ping,high,midLeft,DOWN,green,r,lowA,Stimuli\green_bar1.png,Stimuli\green_bar1.png,Stimuli\ping.png,midRight,lowB,downLeft,lowC,downRight,upLeft,upRight,1,m,0,7,7,3,,,,,,,0.6,0.7,practice,m,1,-10.14,0,10.14,0,-7.16,-7.16,7.16,-7.16,-7.16,7.16,7.16,7.16,2,212,0.7669691000046441,,,10,SL,2,F,28,R,2025-05-13_13h58.29.309,RewSL_SL_EEG,
ping,lowB,downLeft,UP,green,l,lowA,Stimuli\green_bar1.png,Stimuli\green_bar1.png,Stimuli\ping.png,midRight,high,midLeft,lowC,downRight,upLeft,upRight,1,z,0,8,8,9,,,,,,,0.5,0.7,practice,z,1,-7.16,-7.16,10.14,0,-10.14,0,7.16,-7.16,-7.16,7.16,7.16,7.16,2,132,0.7376050000020768,,,10,SL,2,F,28,R,2025-05-13_13h58.29.309,RewSL_SL_EEG,
ping,lowB,downLeft,DOWN,green,l,lowA,Stimuli\green_bar1.png,Stimuli\green_bar1.png,Stimuli\ping.png,midRight,high,midLeft,lowC,downRight,upLeft,upRight,1,m,0,9,9,11,,,,,,,0.5,0.6,practice,m,1,-7.16,-7.16,10.14,0,-10.14,0,7.16,-7.16,-7.16,7.16,7.16,7.16,2,232,0.6301596999983303,,,10,SL,2,F,28,R,2025-05-13_13h58.29.309,RewSL_SL_EEG,
ping,lowA,midRight,DOWN,green,l,high,Stimuli\green_bar1.png,Stimuli\green_bar1.png,Stimuli\ping.png,midLeft,lowB,downLeft,lowC,downRight,upLeft,upRight,1,m,0,10,10,7,,,,,,,0.5,0.8,practice,m,1,10.14,0,-10.14,0,-7.16,-7.16,7.16,-7.16,-7.16,7.16,7.16,7.16,2,222,0.6713502000056906,,,10,SL,2,F,28,R,2025-05-13_13h58.29.309,RewSL_SL_EEG,
ping,lowC,downRight,UP,red,l,lowA,Stimuli\red_bar1.png,Stimuli\red_bar1.png,Stimuli\ping.png,midRight,lowB,downLeft,high,midLeft,upLeft,upRight,1,z,0,11,11,12,,,,,,,0.4,0.7,practice,m,0,7.16,-7.16,10.14,0,-7.16,-7.16,-10.14,0,-7.16,7.16,7.16,7.16,2,142,1.0250536000094144,,,10,SL,2,F,28,R,2025-05-13_13h58.29.309,RewSL_SL_EEG,
ping,lowA,midRight,UP,green,l,high,Stimuli\green_bar1.png,Stimuli\green_bar1.png,Stimuli\ping.png,midLeft,lowB,downLeft,lowC,downRight,upLeft,upRight,1,z,0,12,12,5,,,,,,,0.4,0.7,practice,z,1,10.14,0,-10.14,0,-7.16,-7.16,7.16,-7.16,-7.16,7.16,7.16,7.16,2,122,0.6845942999934778,,,10,SL,2,F,28,R,2025-05-13_13h58.29.309,RewSL_SL_EEG,
ping,lowA,midRight,DOWN,red,l,high,Stimuli\red_bar1.png,Stimuli\red_bar1.png,Stimuli\ping.png,midLeft,lowB,downLeft,lowC,downRight,upLeft,upRight,1,m,0,13,13,6,,,,,,,0.5,0.7,practice,m,1,10.14,0,-10.14,0,-7.16,-7.16,7.16,-7.16,-7.16,7.16,7.16,7.16,2,222,0.7390888999943854,,,10,SL,2,F,28,R,2025-05-13_13h58.29.309,RewSL_SL_EEG,
ping,high,midLeft,UP,green,r,lowA,Stimuli\green_bar1.png,Stimuli\green_bar1.png,Stimuli\ping.png,midRight,lowB,downLeft,lowC,downRight,upLeft,upRight,1,z,0,14,14,1,,,,,,,0.5,0.7,practice,z,1,-10.14,0,10.14,0,-7.16,-7.16,7.16,-7.16,-7.16,7.16,7.16,7.16,2,112,0.5317548000020906,,,10,SL,2,F,28,R,2025-05-13_13h58.29.309,RewSL_SL_EEG,
ping,lowC,downRight,DOWN,green,l,lowA,Stimuli\green_bar1.png,Stimuli\green_bar1.png,Stimuli\ping.png,midRight,lowB,downLeft,high,midLeft,upLeft,upRight,1,m,0,15,15,15,,,,,,,0.5,0.7,practice,m,1,7.16,-7.16,10.14,0,-7.16,-7.16,-10.14,0,-7.16,7.16,7.16,7.16,2,242,0.7676587000023574,,,10,SL,2,F,28,R,2025-05-13_13h58.29.309,RewSL_SL_EEG,
ping,high,midLeft,DOWN,green,l,lowA,Stimuli\green_bar1.png,Stimuli\green_bar1.png,Stimuli\ping.png,midRight,lowB,downLeft,lowC,downRight,upLeft,upRight,1,m,,,,,0,0,0,23,,,0.5,0.7,exp,m,1,-10.14,0,10.14,0,-7.16,-7.16,7.16,-7.16,-7.16,7.16,7.16,7.16,2,212,0.763809099997161,0,1,10,SL,2,F,28,R,2025-05-13_13h58.29.309,RewSL_SL_EEG,
ping,lowB,downLeft,DOWN,red,r,lowA,Stimuli\red_bar1.png,Stimuli\red_bar1.png,Stimuli\ping.png,midRight,high,midLeft,lowC,downRight,upLeft,upRight,1,m,,,,,0,1,1,82,,,0.4,0.7,exp,m,1,-7.16,-7.16,10.14,0,-10.14,0,7.16,-7.16,-7.16,7.16,7.16,7.16,2,232,0.694230900000548,1,2,10,SL,2,F,28,R,2025-05-13_13h58.29.309,RewSL_SL_EEG,
ping,high,midLeft,UP,green,r,lowA,Stimuli\green_bar1.png,Stimuli\green_bar1.png,Stimuli\ping.png,midRight,lowB,downLeft,lowC,downRight,upLeft,upRight,1,z,,,,,0,2,2,33,,,0.5,0.8,exp,z,1,-10.14,0,10.14,0,-7.16,-7.16,7.16,-7.16,-7.16,7.16,7.16,7.16,2,112,0.6450481000065338,2,3,10,SL,2,F,28,R,2025-05-13_13h58.29.309,RewSL_SL_EEG,
ping,high,midLeft,UP,red,l,lowA,Stimuli\red_bar1.png,Stimuli\red_bar1.png,Stimuli\ping.png,midRight,lowB,downLeft,lowC,downRight,upLeft,upRight,1,z,,,,,0,3,3,4,,,0.6,0.6,exp,z,1,-10.14,0,10.14,0,-7.16,-7.16,7.16,-7.16,-7.16,7.16,7.16,7.16,2,112,0.6585016000026371,3,4,10,SL,2,F,28,R,2025-05-13_13h58.29.309,RewSL_SL_EEG,
ping,lowB,downLeft,UP,green,l,lowA,Stimuli\green_bar1.png,Stimuli\green_bar1.png,Stimuli\ping.png,midRight,high,midLeft,lowC,downRight,upLeft,upRight,1,z,,,,,0,4,4,77,,,0.5,0.8,exp,z,1,-7.16,-7.16,10.14,0,-10.14,0,7.16,-7.16,-7.16,7.16,7.16,7.16,2,132,1.0297032999951625,4,5,10,SL,2,F,28,R,2025-05-13_13h58.29.309,RewSL_SL_EEG,
ping,lowB,downLeft,UP,red,l,lowA,Stimuli\red_bar1.png,Stimuli\red_bar1.png,Stimuli\ping.png,midRight,high,midLeft,lowC,downRight,upLeft,upRight,1,z,,,,,0,5,5,68,,,0.4,0.7,exp,z,1,-7.16,-7.16,10.14,0,-10.14,0,7.16,-7.16,-7.16,7.16,7.16,7.16,2,132,0.7045186000032118,5,6,10,SL,2,F,28,R,2025-05-13_13h58.29.309,RewSL_SL_EEG,
ping,high,midLeft,DOWN,red,l,lowA,Stimuli\red_bar1.png,Stimuli\red_bar1.png,Stimuli\ping.png,midRight,lowB,downLeft,lowC,downRight,upLeft,upRight,1,m,,,,,0,6,6,30,,,0.6,0.8,exp,m,1,-10.14,0,10.14,0,-7.16,-7.16,7.16,-7.16,-7.16,7.16,7.16,7.16,2,212,0.9715585999947507,6,7,10,SL,2,F,28,R,2025-05-13_13h58.29.309,RewSL_SL_EEG,
ping,high,midLeft,UP,green,r,lowA,Stimuli\green_bar1.png,Stimuli\green_bar1.png,Stimuli\ping.png,midRight,lowB,downLeft,lowC,downRight,upLeft,upRight,1,z,,,,,0,7,7,1,,,0.5,0.6,exp,z,1,-10.14,0,10.14,0,-7.16,-7.16,7.16,-7.16,-7.16,7.16,7.16,7.16,2,112,0.7289782000007108,7,8,10,SL,2,F,28,R,2025-05-13_13h58.29.309,RewSL_SL_EEG,
ping,high,midLeft,DOWN,green,l,lowA,Stimuli\green_bar1.png,Stimuli\green_bar1.png,Stimuli\ping.png,midRight,lowB,downLeft,lowC,downRight,upLeft,upRight,1,m,,,,,0,8,8,47,,,0.4,0.7,exp,m,1,-10.14,0,10.14,0,-7.16,-7.16,7.16,-7.16,-7.16,7.16,7.16,7.16,2,212,0.6994699000060791,8,9,10,SL,2,F,28,R,2025-05-13_13h58.29.309,RewSL_SL_EEG,
ping,lowC,downRight,DOWN,red,r,lowA,Stimuli\red_bar1.png,Stimuli\red_bar1.png,Stimuli\ping.png,midRight,lowB,downLeft,high,midLeft,upLeft,upRight,1,m,,,,,0,9,9,90,,,0.5,0.7,exp,m,1,7.16,-7.16,10.14,0,-7.16,-7.16,-10.14,0,-7.16,7.16,7.16,7.16,2,242,0.983188500002143,9,10,10,SL,2,F,28,R,2025-05-13_13h58.29.309,RewSL_SL_EEG,
ping,high,midLeft,UP,green,l,lowA,Stimuli\green_bar1.png,Stimuli\green_bar1.png,Stimuli\ping.png,midRight,lowB,downLeft,lowC,downRight,upLeft,upRight,1,z,,,,,0,10,10,29,,,0.5,0.7,exp,z,1,-10.14,0,10.14,0,-7.16,-7.16,7.16,-7.16,-7.16,7.16,7.16,7.16,2,112,1.0010289000056218,10,11,10,SL,2,F,28,R,2025-05-13_13h58.29.309,RewSL_SL_EEG,
ping,high,midLeft,UP,green,r,lowA,Stimuli\green_bar1.png,Stimuli\green_bar1.png,Stimuli\ping.png,midRight,lowB,downLeft,lowC,downRight,upLeft,upRight,1,z,,,,,0,11,11,25,,,0.4,0.7,exp,z,1,-10.14,0,10.14,0,-7.16,-7.16,7.16,-7.16,-7.16,7.16,7.16,7.16,2,112,0.6848647000006167,11,12,10,SL,2,F,28,R,2025-05-13_13h58.29.309,RewSL_SL_EEG,
ping,high,midLeft,DOWN,red,l,lowA,Stimuli\red_bar1.png,Stimuli\red_bar1.png,Stimuli\ping.png,midRight,lowB,downLeft,lowC,downRight,upLeft,upRight,1,m,,,,,0,12,12,22,,,0.6,0.7,exp,m,1,-10.14,0,10.14,0,-7.16,-7.16,7.16,-7.16,-7.16,7.16,7.16,7.16,2,212,0.5375564999994822,12,13,10,SL,2,F,28,R,2025-05-13_13h58.29.309,RewSL_SL_EEG,
ping,lowC,downRight,UP,green,l,lowA,Stimuli\green_bar1.png,Stimuli\green_bar1.png,Stimuli\ping.png,midRight,lowB,downLeft,high,midLeft,upLeft,upRight,1,z,,,,,0,13,13,85,,,0.5,0.7,exp,m,0,7.16,-7.16,10.14,0,-7.16,-7.16,-10.14,0,-7.16,7.16,7.16,7.16,2,142,0.9054190000024391,13,14,10,SL,2,F,28,R,2025-05-13_13h58.29.309,RewSL_SL_EEG,
ping,high,midLeft,UP,green,r,lowA,Stimuli\green_bar1.png,Stimuli\green_bar1.png,Stimuli\ping.png,midRight,lowB,downLeft,lowC,downRight,upLeft,upRight,1,z,,,,,0,14,14,41,,,0.6,0.8,exp,z,1,-10.14,0,10.14,0,-7.16,-7.16,7.16,-7.16,-7.16,7.16,7.16,7.16,2,112,0.5836298000067472,14,15,10,SL,2,F,28,R,2025-05-13_13h58.29.309,RewSL_SL_EEG,
ping,high,midLeft,DOWN,red,l,lowA,Stimuli\red_bar1.png,Stimuli\red_bar1.png,Stimuli\ping.png,midRight,lowB,downLeft,lowC,downRight,upLeft,upRight,1,m,,,,,0,15,15,14,,,0.5,0.8,exp,m,1,-10.14,0,10.14,0,-7.16,-7.16,7.16,-7.16,-7.16,7.16,7.16,7.16,2,212,0.6340055000036955,15,16,10,SL,2,F,28,R,2025-05-13_13h58.29.309,RewSL_SL_EEG,
ping,high,midLeft,UP,red,r,lowA,Stimuli\red_bar1.png,Stimuli\red_bar1.png,Stimuli\ping.png,midRight,lowB,downLeft,lowC,downRight,upLeft,upRight,1,z,,,,,0,16,16,48,,,0.4,0.8,exp,z,1,-10.14,0,10.14,0,-7.16,-7.16,7.16,-7.16,-7.16,7.16,7.16,7.16,2,112,0.5212695999944117,16,17,10,SL,2,F,28,R,2025-05-13_13h58.29.309,RewSL_SL_EEG,
ping,high,midLeft,DOWN,green,l,lowA,Stimuli\green_bar1.png,Stimuli\green_bar1.png,Stimuli\ping.png,midRight,lowB,downLeft,lowC,downRight,upLeft,upRight,1,m,,,,,0,17,17,39,,,0.5,0.6,exp,m,1,-10.14,0,10.14,0,-7.16,-7.16,7.16,-7.16,-7.16,7.16,7.16,7.16,2,212,0.7827303000085521,17,18,10,SL,2,F,28,R,2025-05-13_13h58.29.309,RewSL_SL_EEG,
ping,high,midLeft,UP,red,l,lowA,Stimuli\red_bar1.png,Stimuli\red_bar1.png,Stimuli\ping.png,midRight,lowB,downLeft,lowC,downRight,upLeft,upRight,1,z,,,,,0,18,18,36,,,0.5,0.6,exp,z,1,-10.14,0,10.14,0,-7.16,-7.16,7.16,-7.16,-7.16,7.16,7.16,7.16,2,112,0.6421972999960417,18,19,10,SL,2,F,28,R,2025-05-13_13h58.29.309,RewSL_SL_EEG,
ping,lowC,downRight,DOWN,red,r,lowA,Stimuli\red_bar1.png,Stimuli\red_bar1.png,Stimuli\ping.png,midRight,lowB,downLeft,high,midLeft,upLeft,upRight,1,m,,,,,0,19,19,98,,,0.5,0.7,exp,m,1,7.16,-7.16,10.14,0,-7.16,-7.16,-10.14,0,-7.16,7.16,7.16,7.16,2,242,0.6555808999983128,19,20,10,SL,2,F,28,R,2025-05-13_13h58.29.309,RewSL_SL_EEG,
ping,high,midLeft,UP,green,r,lowA,Stimuli\green_bar1.png,Stimuli\green_bar1.png,Stimuli\ping.png,midRight,lowB,downLeft,lowC,downRight,upLeft,upRight,1,z,,,,,0,20,20,9,,,0.4,0.7,exp,z,1,-10.14,0,10.14,0,-7.16,-7.16,7.16,-7.16,-7.16,7.16,7.16,7.16,2,112,0.9379807999939658,20,21,10,SL,2,F,28,R,2025-05-13_13h58.29.309,RewSL_SL_EEG,
ping,lowA,midRight,DOWN,green,r,high,Stimuli\green_bar1.png,Stimuli\green_bar1.png,Stimuli\ping.png,midLeft,lowB,downLeft,lowC,downRight,upLeft,upRight,1,m,,,,,0,21,21,59,,,0.6,0.7,exp,m,1,10.14,0,-10.14,0,-7.16,-7.16,7.16,-7.16,-7.16,7.16,7.16,7.16,2,222,0.7550259999989066,21,22,10,SL,2,F,28,R,2025-05-13_13h58.29.309,RewSL_SL_EEG,
ping,high,midLeft,DOWN,green,r,lowA,Stimuli\green_bar1.png,Stimuli\green_bar1.png,Stimuli\ping.png,midRight,lowB,downLeft,lowC,downRight,upLeft,upRight,1,m,,,,,0,22,22,27,,,0.5,0.8,exp,m,1,-10.14,0,10.14,0,-7.16,-7.16,7.16,-7.16,-7.16,7.16,7.16,7.16,2,212,0.6549923999991734,22,23,10,SL,2,F,28,R,2025-05-13_13h58.29.309,RewSL_SL_EEG,
ping,high,midLeft,DOWN,green,r,lowA,Stimuli\green_bar1.png,Stimuli\green_bar1.png,Stimuli\ping.png,midRight,lowB,downLeft,lowC,downRight,upLeft,upRight,1,m,,,,,0,23,23,51,,,0.5,0.8,exp,m,1,-10.14,0,10.14,0,-7.16,-7.16,7.16,-7.16,-7.16,7.16,7.16,7.16,2,212,0.5678921000071568,23,24,10,SL,2,F,28,R,2025-05-13_13h58.29.309,RewSL_SL_EEG,
ping,lowA,midRight,DOWN,red,r,high,Stimuli\red_bar1.png,Stimuli\red_bar1.png,Stimuli\ping.png,midLeft,lowB,downLeft,lowC,downRight,upLeft,upRight,1,m,,,,,0,24,24,66,,,0.5,0.6,exp,m,1,10.14,0,-10.14,0,-7.16,-7.16,7.16,-7.16,-7.16,7.16,7.16,7.16,2,222,0.5042319000058342,24,25,10,SL,2,F,28,R,2025-05-13_13h58.29.309,RewSL_SL_EEG,
ping,lowB,downLeft,UP,red,r,lowA,Stimuli\red_bar1.png,Stimuli\red_bar1.png,Stimuli\ping.png,midRight,high,midLeft,lowC,downRight,upLeft,upRight,1,z,,,,,0,25,25,72,,,0.6,0.7,exp,m,0,-7.16,-7.16,10.14,0,-10.14,0,7.16,-7.16,-7.16,7.16,7.16,7.16,2,132,0.6445978000119794,25,26,10,SL,2,F,28,R,2025-05-13_13h58.29.309,RewSL_SL_EEG,
ping,high,midLeft,DOWN,green,r,lowA,Stimuli\green_bar1.png,Stimuli\green_bar1.png,Stimuli\ping.png,midRight,lowB,downLeft,lowC,downRight,upLeft,upRight,1,m,,,,,0,26,26,19,,,0.5,0.7,exp,z,0,-10.14,0,10.14,0,-7.16,-7.16,7.16,-7.16,-7.16,7.16,7.16,7.16,2,212,0.5784056000120472,26,27,10,SL,2,F,28,R,2025-05-13_13h58.29.309,RewSL_SL_EEG,
ping,high,midLeft,DOWN,green,r,lowA,Stimuli\green_bar1.png,Stimuli\green_bar1.png,Stimuli\ping.png,midRight,lowB,downLeft,lowC,downRight,upLeft,upRight,1,m,,,,,0,27,27,11,,,0.6,0.7,exp,m,1,-10.14,0,10.14,0,-7.16,-7.16,7.16,-7.16,-7.16,7.16,7.16,7.16,2,212,0.5799428000027547,27,28,10,SL,2,F,28,R,2025-05-13_13h58.29.309,RewSL_SL_EEG,
ping,high,midLeft,DOWN,green,l,lowA,Stimuli\green_bar1.png,Stimuli\green_bar1.png,Stimuli\ping.png,midRight,lowB,downLeft,lowC,downRight,upLeft,upRight,1,m,,,,,0,28,28,15,,,0.4,0.7,exp,m,1,-10.14,0,10.14,0,-7.16,-7.16,7.16,-7.16,-7.16,7.16,7.16,7.16,2,212,0.5681271000066772,28,29,10,SL,2,F,28,R,2025-05-13_13h58.29.309,RewSL_SL_EEG,
ping,high,midLeft,DOWN,red,l,lowA,Stimuli\red_bar1.png,Stimuli\red_bar1.png,Stimuli\ping.png,midRight,lowB,downLeft,lowC,downRight,upLeft,upRight,1,m,,,,,0,29,29,6,,,0.6,0.7,exp,m,1,-10.14,0,10.14,0,-7.16,-7.16,7.16,-7.16,-7.16,7.16,7.16,7.16,2,212,0.5594139000022551,29,30,10,SL,2,F,28,R,2025-05-13_13h58.29.309,RewSL_SL_EEG,
ping,lowC,downRight,UP,green,r,lowA,Stimuli\green_bar1.png,Stimuli\green_bar1.png,Stimuli\ping.png,midRight,lowB,downLeft,high,midLeft,upLeft,upRight,1,z,,,,,0,30,30,89,,,0.6,0.6,exp,z,1,7.16,-7.16,10.14,0,-7.16,-7.16,-10.14,0,-7.16,7.16,7.16,7.16,2,142,0.5749887999991188,30,31,10,SL,2,F,28,R,2025-05-13_13h58.29.309,RewSL_SL_EEG,
ping,lowB,downLeft,UP,green,r,lowA,Stimuli\green_bar1.png,Stimuli\green_bar1.png,Stimuli\ping.png,midRight,high,midLeft,lowC,downRight,upLeft,upRight,1,z,,,,,0,31,31,73,,,0.5,0.7,exp,z,1,-7.16,-7.16,10.14,0,-10.14,0,7.16,-7.16,-7.16,7.16,7.16,7.16,2,132,0.6798563000047579,31,32,10,SL,2,F,28,R,2025-05-13_13h58.29.309,RewSL_SL_EEG,
ping,lowC,downRight,UP,red,l,lowA,Stimuli\red_bar1.png,Stimuli\red_bar1.png,Stimuli\ping.png,midRight,lowB,downLeft,high,midLeft,upLeft,upRight,1,z,,,,,0,32,32,84,,,0.4,0.7,exp,z,1,7.16,-7.16,10.14,0,-7.16,-7.16,-10.14,0,-7.16,7.16,7.16,7.16,2,142,0.6633512999978848,32,33,10,SL,2,F,28,R,2025-05-13_13h58.29.309,RewSL_SL_EEG,
ping,high,midLeft,UP,red,l,lowA,Stimuli\red_bar1.png,Stimuli\red_bar1.png,Stimuli\ping.png,midRight,lowB,downLeft,lowC,downRight,upLeft,upRight,1,z,,,,,0,33,33,44,,,0.5,0.8,exp,z,1,-10.14,0,10.14,0,-7.16,-7.16,7.16,-7.16,-7.16,7.16,7.16,7.16,2,112,0.695517900006962,33,34,10,SL,2,F,28,R,2025-05-13_13h58.29.309,RewSL_SL_EEG,
ping,lowA,midRight,UP,red,r,high,Stimuli\red_bar1.png,Stimuli\red_bar1.png,Stimuli\ping.png,midLeft,lowB,downLeft,lowC,downRight,upLeft,upRight,1,z,,,,,0,34,34,56,,,0.6,0.6,exp,m,0,10.14,0,-10.14,0,-7.16,-7.16,7.16,-7.16,-7.16,7.16,7.16,7.16,2,122,0.8892328999936581,34,35,10,SL,2,F,28,R,2025-05-13_13h58.29.309,RewSL_SL_EEG,
ping,lowB,downLeft,DOWN,green,r,lowA,Stimuli\green_bar1.png,Stimuli\green_bar1.png,Stimuli\ping.png,midRight,high,midLeft,lowC,downRight,upLeft,upRight,1,m,,,,,0,35,35,83,,,0.5,0.7,exp,m,1,-7.16,-7.16,10.14,0,-10.14,0,7.16,-7.16,-7.16,7.16,7.16,7.16,2,232,0.8711368000076618,35,36,10,SL,2,F,28,R,2025-05-13_13h58.29.309,RewSL_SL_EEG,
ping,lowA,midRight,DOWN,green,r,high,Stimuli\green_bar1.png,Stimuli\green_bar1.png,Stimuli\ping.png,midLeft,lowB,downLeft,lowC,downRight,upLeft,upRight,1,m,,,,,0,36,36,67,,,0.5,0.8,exp,m,1,10.14,0,-10.14,0,-7.16,-7.16,7.16,-7.16,-7.16,7.16,7.16,7.16,2,222,0.7391489000001457,36,37,10,SL,2,F,28,R,2025-05-13_13h58.29.309,RewSL_SL_EEG,
ping,high,midLeft,DOWN,red,r,lowA,Stimuli\red_bar1.png,Stimuli\red_bar1.png,Stimuli\ping.png,midRight,lowB,downLeft,lowC,downRight,upLeft,upRight,1,m,,,,,0,37,37,50,,,0.6,0.6,exp,m,1,-10.14,0,10.14,0,-7.16,-7.16,7.16,-7.16,-7.16,7.16,7.16,7.16,2,212,0.6083205999893835,37,38,10,SL,2,F,28,R,2025-05-13_13h58.29.309,RewSL_SL_EEG,
ping,lowA,midRight,DOWN,red,l,high,Stimuli\red_bar1.png,Stimuli\red_bar1.png,Stimuli\ping.png,midLeft,lowB,downLeft,lowC,downRight,upLeft,upRight,1,m,,,,,0,38,38,54,,,0.6,0.6,exp,z,0,10.14,0,-10.14,0,-7.16,-7.16,7.16,-7.16,-7.16,7.16,7.16,7.16,2,222,0.7712915999873076,38,39,10,SL,2,F,28,R,2025-05-13_13h58.29.309,RewSL_SL_EEG,
ping,lowC,downRight,DOWN,green,l,lowA,Stimuli\green_bar1.png,Stimuli\green_bar1.png,Stimuli\ping.png,midRight,lowB,downLeft,high,midLeft,upLeft,upRight,1,m,,,,,0,39,39,87,,,0.5,0.6,exp,m,1,7.16,-7.16,10.14,0,-7.16,-7.16,-10.14,0,-7.16,7.16,7.16,7.16,2,242,0.7418495999881998,39,40,10,SL,2,F,28,R,2025-05-13_13h58.29.309,RewSL_SL_EEG,
ping,lowA,midRight,UP,red,l,high,Stimuli\red_bar1.png,Stimuli\red_bar1.png,Stimuli\ping.png,midLeft,lowB,downLeft,lowC,downRight,upLeft,upRight,1,z,,,,,0,40,40,52,,,0.5,0.8,exp,z,1,10.14,0,-10.14,0,-7.16,-7.16,7.16,-7.16,-7.16,7.16,7.16,7.16,2,122,0.9286514999985229,40,41,10,SL,2,F,28,R,2025-05-13_13h58.29.309,RewSL_SL_EEG,
ping,lowB,downLeft,DOWN,green,r,lowA,Stimuli\green_bar1.png,Stimuli\green_bar1.png,Stimuli\ping.png,midRight,high,midLeft,lowC,downRight,upLeft,upRight,1,m,,,,,0,41,41,75,,,0.4,0.8,exp,m,1,-7.16,-7.16,10.14,0,-10.14,0,7.16,-7.16,-7.16,7.16,7.16,7.16,2,232,0.7042100000107894,41,42,10,SL,2,F,28,R,2025-05-13_13h58.29.309,RewSL_SL_EEG,
ping,lowB,downLeft,UP,red,r,lowA,Stimuli\red_bar1.png,Stimuli\red_bar1.png,Stimuli\ping.png,midRight,high,midLeft,lowC,downRight,upLeft,upRight,1,z,,,,,0,42,42,80,,,0.5,0.7,exp,z,1,-7.16,-7.16,10.14,0,-10.14,0,7.16,-7.16,-7.16,7.16,7.16,7.16,2,132,0.7169052000099327,42,43,10,SL,2,F,28,R,2025-05-13_13h58.29.309,RewSL_SL_EEG,
ping,lowA,midRight,DOWN,green,l,high,Stimuli\green_bar1.png,Stimuli\green_bar1.png,Stimuli\ping.png,midLeft,lowB,downLeft,lowC,downRight,upLeft,upRight,1,m,,,,,0,43,43,63,,,0.5,0.8,exp,m,1,10.14,0,-10.14,0,-7.16,-7.16,7.16,-7.16,-7.16,7.16,7.16,7.16,2,222,0.5547681000025477,43,44,10,SL,2,F,28,R,2025-05-13_13h58.29.309,RewSL_SL_EEG,
ping,lowC,downRight,UP,red,r,lowA,Stimuli\red_bar1.png,Stimuli\red_bar1.png,Stimuli\ping.png,midRight,lowB,downLeft,high,midLeft,upLeft,upRight,1,z,,,,,0,44,44,88,,,0.5,0.8,exp,z,1,7.16,-7.16,10.14,0,-7.16,-7.16,-10.14,0,-7.16,7.16,7.16,7.16,2,142,0.7537809999921592,44,45,10,SL,2,F,28,R,2025-05-13_13h58.29.309,RewSL_SL_EEG,
ping,lowB,downLeft,UP,green,l,lowA,Stimuli\green_bar1.png,Stimuli\green_bar1.png,Stimuli\ping.png,midRight,high,midLeft,lowC,downRight,upLeft,upRight,1,z,,,,,0,45,45,69,,,0.6,0.6,exp,z,1,-7.16,-7.16,10.14,0,-10.14,0,7.16,-7.16,-7.16,7.16,7.16,7.16,2,132,0.861339199997019,45,46,10,SL,2,F,28,R,2025-05-13_13h58.29.309,RewSL_SL_EEG,
ping,lowB,downLeft,UP,red,l,lowA,Stimuli\red_bar1.png,Stimuli\red_bar1.png,Stimuli\ping.png,midRight,high,midLeft,lowC,downRight,upLeft,upRight,1,z,,,,,0,46,46,76,,,0.5,0.6,exp,z,1,-7.16,-7.16,10.14,0,-10.14,0,7.16,-7.16,-7.16,7.16,7.16,7.16,2,132,0.5706425999960629,46,47,10,SL,2,F,28,R,2025-05-13_13h58.29.309,RewSL_SL_EEG,
ping,lowA,midRight,UP,green,l,high,Stimuli\green_bar1.png,Stimuli\green_bar1.png,Stimuli\ping.png,midLeft,lowB,downLeft,lowC,downRight,upLeft,upRight,1,z,,,,,0,47,47,53,,,0.4,0.6,exp,z,1,10.14,0,-10.14,0,-7.16,-7.16,7.16,-7.16,-7.16,7.16,7.16,7.16,2,122,0.5544692999974359,47,48,10,SL,2,F,28,R,2025-05-13_13h58.29.309,RewSL_SL_EEG,
ping,lowC,downRight,UP,red,r,lowA,Stimuli\red_bar1.png,Stimuli\red_bar1.png,Stimuli\ping.png,midRight,lowB,downLeft,high,midLeft,upLeft,upRight,1,z,,,,,0,48,48,96,,,0.5,0.6,exp,z,1,7.16,-7.16,10.14,0,-7.16,-7.16,-10.14,0,-7.16,7.16,7.16,7.16,2,142,0.6130965999909677,48,49,10,SL,2,F,28,R,2025-05-13_13h58.29.309,RewSL_SL_EEG,
ping,high,midLeft,UP,red,l,lowA,Stimuli\red_bar1.png,Stimuli\red_bar1.png,Stimuli\ping.png,midRight,lowB,downLeft,lowC,downRight,upLeft,upRight,1,z,,,,,0,49,49,28,,,0.6,0.7,exp,z,1,-10.14,0,10.14,0,-7.16,-7.16,7.16,-7.16,-7.16,7.16,7.16,7.16,2,112,0.8264674000092782,49,50,10,SL,2,F,28,R,2025-05-13_13h58.29.309,RewSL_SL_EEG,
ping,high,midLeft,DOWN,green,l,lowA,Stimuli\green_bar1.png,Stimuli\green_bar1.png,Stimuli\ping.png,midRight,lowB,downLeft,lowC,downRight,upLeft,upRight,1,m,,,,,0,50,50,31,,,0.5,0.7,exp,m,1,-10.14,0,10.14,0,-7.16,-7.16,7.16,-7.16,-7.16,7.16,7.16,7.16,2,212,0.6875048999936553,50,51,10,SL,2,F,28,R,2025-05-13_13h58.29.309,RewSL_SL_EEG,
ping,high,midLeft,DOWN,red,r,lowA,Stimuli\red_bar1.png,Stimuli\red_bar1.png,Stimuli\ping.png,midRight,lowB,downLeft,lowC,downRight,upLeft,upRight,1,m,,,,,0,51,51,2,,,0.6,0.7,exp,m,1,-10.14,0,10.14,0,-7.16,-7.16,7.16,-7.16,-7.16,7.16,7.16,7.16,2,212,0.6196142999979202,51,52,10,SL,2,F,28,R,2025-05-13_13h58.29.309,RewSL_SL_EEG,
ping,high,midLeft,DOWN,red,r,lowA,Stimuli\red_bar1.png,Stimuli\red_bar1.png,Stimuli\ping.png,midRight,lowB,downLeft,lowC,downRight,upLeft,upRight,1,m,,,,,0,52,52,42,,,0.5,0.7,exp,m,1,-10.14,0,10.14,0,-7.16,-7.16,7.16,-7.16,-7.16,7.16,7.16,7.16,2,212,0.6045940000039991,52,53,10,SL,2,F,28,R,2025-05-13_13h58.29.309,RewSL_SL_EEG,
ping,high,midLeft,DOWN,green,l,lowA,Stimuli\green_bar1.png,Stimuli\green_bar1.png,Stimuli\ping.png,midRight,lowB,downLeft,lowC,downRight,upLeft,upRight,1,m,,,,,0,53,53,7,,,0.5,0.7,exp,m,1,-10.14,0,10.14,0,-7.16,-7.16,7.16,-7.16,-7.16,7.16,7.16,7.16,2,212,0.6252003000117838,53,54,10,SL,2,F,28,R,2025-05-13_13h58.29.309,RewSL_SL_EEG,
ping,high,midLeft,UP,green,l,lowA,Stimuli\green_bar1.png,Stimuli\green_bar1.png,Stimuli\ping.png,midRight,lowB,downLeft,lowC,downRight,upLeft,upRight,1,z,,,,,0,54,54,37,,,0.5,0.6,exp,z,1,-10.14,0,10.14,0,-7.16,-7.16,7.16,-7.16,-7.16,7.16,7.16,7.16,2,112,0.7056893999979366,54,55,10,SL,2,F,28,R,2025-05-13_13h58.29.309,RewSL_SL_EEG,
ping,lowA,midRight,UP,red,l,high,Stimuli\red_bar1.png,Stimuli\red_bar1.png,Stimuli\ping.png,midLeft,lowB,downLeft,lowC,downRight,upLeft,upRight,1,z,,,,,0,55,55,60,,,0.6,0.8,exp,z,1,10.14,0,-10.14,0,-7.16,-7.16,7.16,-7.16,-7.16,7.16,7.16,7.16,2,122,0.593574999991688,55,56,10,SL,2,F,28,R,2025-05-13_13h58.29.309,RewSL_SL_EEG,
ping,high,midLeft,DOWN,red,r,lowA,Stimuli\red_bar1.png,Stimuli\red_bar1.png,Stimuli\ping.png,midRight,lowB,downLeft,lowC,downRight,upLeft,upRight,1,m,,,,,0,56,56,10,,,0.4,0.7,exp,m,1,-10.14,0,10.14,0,-7.16,-7.16,7.16,-7.16,-7.16,7.16,7.16,7.16,2,212,0.7221027999912621,56,57,10,SL,2,F,28,R,2025-05-13_13h58.29.309,RewSL_SL_EEG,
ping,lowA,midRight,DOWN,green,l,high,Stimuli\green_bar1.png,Stimuli\green_bar1.png,Stimuli\ping.png,midLeft,lowB,downLeft,lowC,downRight,upLeft,upRight,1,m,,,,,0,57,57,55,,,0.5,0.8,exp,m,1,10.14,0,-10.14,0,-7.16,-7.16,7.16,-7.16,-7.16,7.16,7.16,7.16,2,222,0.692165100001148,57,58,10,SL,2,F,28,R,2025-05-13_13h58.29.309,RewSL_SL_EEG,
ping,lowA,midRight,DOWN,red,l,high,Stimuli\red_bar1.png,Stimuli\red_bar1.png,Stimuli\ping.png,midLeft,lowB,downLeft,lowC,downRight,upLeft,upRight,1,m,,,,,0,58,58,62,,,0.5,0.7,exp,z,0,10.14,0,-10.14,0,-7.16,-7.16,7.16,-7.16,-7.16,7.16,7.16,7.16,2,222,0.7297464000002947,58,59,10,SL,2,F,28,R,2025-05-13_13h58.29.309,RewSL_SL_EEG,
ping,high,midLeft,UP,red,l,lowA,Stimuli\red_bar1.png,Stimuli\red_bar1.png,Stimuli\ping.png,midRight,lowB,downLeft,lowC,downRight,upLeft,upRight,1,z,,,,,0,59,59,12,,,0.5,0.7,exp,z,1,-10.14,0,10.14,0,-7.16,-7.16,7.16,-7.16,-7.16,7.16,7.16,7.16,2,112,0.5674014999967767,59,60,10,SL,2,F,28,R,2025-05-13_13h58.29.309,RewSL_SL_EEG,
ping,high,midLeft,DOWN,green,r,lowA,Stimuli\green_bar1.png,Stimuli\green_bar1.png,Stimuli\ping.png,midRight,lowB,downLeft,lowC,downRight,upLeft,upRight,1,m,,,,,0,60,60,3,,,0.4,0.7,exp,m,1,-10.14,0,10.14,0,-7.16,-7.16,7.16,-7.16,-7.16,7.16,7.16,7.16,2,212,0.6790800000017043,60,61,10,SL,2,F,28,R,2025-05-13_13h58.29.309,RewSL_SL_EEG,
ping,high,midLeft,UP,red,r,lowA,Stimuli\red_bar1.png,Stimuli\red_bar1.png,Stimuli\ping.png,midRight,lowB,downLeft,lowC,downRight,upLeft,upRight,1,z,,,,,0,61,61,40,,,0.5,0.8,exp,z,1,-10.14,0,10.14,0,-7.16,-7.16,7.16,-7.16,-7.16,7.16,7.16,7.16,2,112,0.48865529999602586,61,62,10,SL,2,F,28,R,2025-05-13_13h58.29.309,RewSL_SL_EEG,
ping,lowA,midRight,UP,green,r,high,Stimuli\green_bar1.png,Stimuli\green_bar1.png,Stimuli\ping.png,midLeft,lowB,downLeft,lowC,downRight,upLeft,upRight,1,z,,,,,0,62,62,65,,,0.5,0.6,exp,z,1,10.14,0,-10.14,0,-7.16,-7.16,7.16,-7.16,-7.16,7.16,7.16,7.16,2,122,0.6209530000051018,62,63,10,SL,2,F,28,R,2025-05-13_13h58.29.309,RewSL_SL_EEG,
ping,lowC,downRight,DOWN,green,r,lowA,Stimuli\green_bar1.png,Stimuli\green_bar1.png,Stimuli\ping.png,midRight,lowB,downLeft,high,midLeft,upLeft,upRight,1,m,,,,,0,63,63,99,,,0.5,0.6,exp,z,0,7.16,-7.16,10.14,0,-7.16,-7.16,-10.14,0,-7.16,7.16,7.16,7.16,2,242,0.7618324999930337,63,64,10,SL,2,F,28,R,2025-05-13_13h58.29.309,RewSL_SL_EEG,
ping,high,midLeft,DOWN,green,r,lowA,Stimuli\green_bar1.png,Stimuli\green_bar1.png,Stimuli\ping.png,midRight,lowB,downLeft,lowC,downRight,upLeft,upRight,1,m,,,,,0,64,64,35,,,0.6,0.8,exp,m,1,-10.14,0,10.14,0,-7.16,-7.16,7.16,-7.16,-7.16,7.16,7.16,7.16,2,212,0.7965987000061432,64,65,10,SL,2,F,28,R,2025-05-13_13h58.29.309,RewSL_SL_EEG,
ping,high,midLeft,UP,red,r,lowA,Stimuli\red_bar1.png,Stimuli\red_bar1.png,Stimuli\ping.png,midRight,lowB,downLeft,lowC,downRight,upLeft,upRight,1,z,,,,,0,65,65,8,,,0.5,0.7,exp,m,0,-10.14,0,10.14,0,-7.16,-7.16,7.16,-7.16,-7.16,7.16,7.16,7.16,2,112,0.605816600000253,65,66,10,SL,2,F,28,R,2025-05-13_13h58.29.309,RewSL_SL_EEG,
ping,high,midLeft,UP,green,l,lowA,Stimuli\green_bar1.png,Stimuli\green_bar1.png,Stimuli\ping.png,midRight,lowB,downLeft,lowC,downRight,upLeft,upRight,1,z,,,,,0,66,66,45,,,0.6,0.7,exp,z,1,-10.14,0,10.14,0,-7.16,-7.16,7.16,-7.16,-7.16,7.16,7.16,7.16,2,112,0.629223899988574,66,67,10,SL,2,F,28,R,2025-05-13_13h58.29.309,RewSL_SL_EEG,
ping,high,midLeft,UP,red,r,lowA,Stimuli\red_bar1.png,Stimuli\red_bar1.png,Stimuli\ping.png,midRight,lowB,downLeft,lowC,downRight,upLeft,upRight,1,z,,,,,0,67,67,16,,,0.4,0.6,exp,z,1,-10.14,0,10.14,0,-7.16,-7.16,7.16,-7.16,-7.16,7.16,7.16,7.16,2,112,0.5238319000054616,67,68,10,SL,2,F,28,R,2025-05-13_13h58.29.309,RewSL_SL_EEG,
ping,high,midLeft,UP,red,r,lowA,Stimuli\red_bar1.png,Stimuli\red_bar1.png,Stimuli\ping.png,midRight,lowB,downLeft,lowC,downRight,upLeft,upRight,1,z,,,,,0,68,68,24,,,0.4,0.6,exp,z,1,-10.14,0,10.14,0,-7.16,-7.16,7.16,-7.16,-7.16,7.16,7.16,7.16,2,112,0.44942859999719076,68,69,10,SL,2,F,28,R,2025-05-13_13h58.29.309,RewSL_SL_EEG,
ping,high,midLeft,UP,green,r,lowA,Stimuli\green_bar1.png,Stimuli\green_bar1.png,Stimuli\ping.png,midRight,lowB,downLeft,lowC,downRight,upLeft,upRight,1,z,,,,,0,69,69,49,,,0.5,0.7,exp,z,1,-10.14,0,10.14,0,-7.16,-7.16,7.16,-7.16,-7.16,7.16,7.16,7.16,2,112,0.5731372999871382,69,70,10,SL,2,F,28,R,2025-05-13_13h58.29.309,RewSL_SL_EEG,
ping,high,midLeft,UP,red,r,lowA,Stimuli\red_bar1.png,Stimuli\red_bar1.png,Stimuli\ping.png,midRight,lowB,downLeft,lowC,downRight,upLeft,upRight,1,z,,,,,0,70,70,0,,,0.4,0.7,exp,z,1,-10.14,0,10.14,0,-7.16,-7.16,7.16,-7.16,-7.16,7.16,7.16,7.16,2,112,0.9172480999986874,70,71,10,SL,2,F,28,R,2025-05-13_13h58.29.309,RewSL_SL_EEG,
ping,lowB,downLeft,DOWN,red,l,lowA,Stimuli\red_bar1.png,Stimuli\red_bar1.png,Stimuli\ping.png,midRight,high,midLeft,lowC,downRight,upLeft,upRight,1,m,,,,,0,71,71,70,,,0.5,0.7,exp,m,1,-7.16,-7.16,10.14,0,-10.14,0,7.16,-7.16,-7.16,7.16,7.16,7.16,2,232,0.7421338999993168,71,72,10,SL,2,F,28,R,2025-05-13_13h58.29.309,RewSL_SL_EEG,
ping,lowB,downLeft,DOWN,red,l,lowA,Stimuli\red_bar1.png,Stimuli\red_bar1.png,Stimuli\ping.png,midRight,high,midLeft,lowC,downRight,upLeft,upRight,1,m,,,,,0,72,72,78,,,0.5,0.8,exp,m,1,-7.16,-7.16,10.14,0,-10.14,0,7.16,-7.16,-7.16,7.16,7.16,7.16,2,232,0.621685800011619,72,73,10,SL,2,F,28,R,2025-05-13_13h58.29.309,RewSL_SL_EEG,
ping,lowB,downLeft,DOWN,green,l,lowA,Stimuli\green_bar1.png,Stimuli\green_bar1.png,Stimuli\ping.png,midRight,high,midLeft,lowC,downRight,upLeft,upRight,1,m,,,,,0,73,73,79,,,0.5,0.7,exp,m,1,-7.16,-7.16,10.14,0,-10.14,0,7.16,-7.16,-7.16,7.16,7.16,7.16,2,232,0.7525195999915013,73,74,10,SL,2,F,28,R,2025-05-13_13h58.29.309,RewSL_SL_EEG,
ping,high,midLeft,UP,green,l,lowA,Stimuli\green_bar1.png,Stimuli\green_bar1.png,Stimuli\ping.png,midRight,lowB,downLeft,lowC,downRight,upLeft,upRight,1,z,,,,,0,74,74,5,,,0.6,0.6,exp,z,1,-10.14,0,10.14,0,-7.16,-7.16,7.16,-7.16,-7.16,7.16,7.16,7.16,2,112,0.5466253999911714,74,75,10,SL,2,F,28,R,2025-05-13_13h58.29.309,RewSL_SL_EEG,
ping,lowC,downRight,DOWN,red,l,lowA,Stimuli\red_bar1.png,Stimuli\red_bar1.png,Stimuli\ping.png,midRight,lowB,downLeft,high,midLeft,upLeft,upRight,1,m,,,,,0,75,75,94,,,0.5,0.6,exp,m,1,7.16,-7.16,10.14,0,-7.16,-7.16,-10.14,0,-7.16,7.16,7.16,7.16,2,242,0.6459180999954697,75,76,10,SL,2,F,28,R,2025-05-13_13h58.29.309,RewSL_SL_EEG,
ping,high,midLeft,UP,green,r,lowA,Stimuli\green_bar1.png,Stimuli\green_bar1.png,Stimuli\ping.png,midRight,lowB,downLeft,lowC,downRight,upLeft,upRight,1,z,,,,,0,76,76,17,,,0.5,0.8,exp,z,1,-10.14,0,10.14,0,-7.16,-7.16,7.16,-7.16,-7.16,7.16,7.16,7.16,2,112,0.5882468999916455,76,77,10,SL,2,F,28,R,2025-05-13_13h58.29.309,RewSL_SL_EEG,
ping,lowC,downRight,DOWN,green,r,lowA,Stimuli\green_bar1.png,Stimuli\green_bar1.png,Stimuli\ping.png,midRight,lowB,downLeft,high,midLeft,upLeft,upRight,1,m,,,,,0,77,77,91,,,0.5,0.7,exp,m,1,7.16,-7.16,10.14,0,-7.16,-7.16,-10.14,0,-7.16,7.16,7.16,7.16,2,242,0.6797009000001708,77,78,10,SL,2,F,28,R,2025-05-13_13h58.29.309,RewSL_SL_EEG,
ping,high,midLeft,DOWN,red,l,lowA,Stimuli\red_bar1.png,Stimuli\red_bar1.png,Stimuli\ping.png,midRight,lowB,downLeft,lowC,downRight,upLeft,upRight,1,m,,,,,0,78,78,38,,,0.6,0.7,exp,m,1,-10.14,0,10.14,0,-7.16,-7.16,7.16,-7.16,-7.16,7.16,7.16,7.16,2,212,0.6084602000046289,78,79,10,SL,2,F,28,R,2025-05-13_13h58.29.309,RewSL_SL_EEG,
ping,high,midLeft,UP,red,r,lowA,Stimuli\red_bar1.png,Stimuli\red_bar1.png,Stimuli\ping.png,midRight,lowB,downLeft,lowC,downRight,upLeft,upRight,1,z,,,,,0,79,79,32,,,0.5,0.7,exp,z,1,-10.14,0,10.14,0,-7.16,-7.16,7.16,-7.16,-7.16,7.16,7.16,7.16,2,112,0.48779640000429936,79,80,10,SL,2,F,28,R,2025-05-13_13h58.29.309,RewSL_SL_EEG,
ping,lowB,downLeft,DOWN,green,l,lowA,Stimuli\green_bar1.png,Stimuli\green_bar1.png,Stimuli\ping.png,midRight,high,midLeft,lowC,downRight,upLeft,upRight,1,m,,,,,0,80,80,71,,,0.5,0.6,exp,m,1,-7.16,-7.16,10.14,0,-10.14,0,7.16,-7.16,-7.16,7.16,7.16,7.16,2,232,0.7617381000018213,80,81,10,SL,2,F,28,R,2025-05-13_13h58.29.309,RewSL_SL_EEG,
ping,high,midLeft,UP,green,l,lowA,Stimuli\green_bar1.png,Stimuli\green_bar1.png,Stimuli\ping.png,midRight,lowB,downLeft,lowC,downRight,upLeft,upRight,1,z,,,,,0,81,81,13,,,0.5,0.6,exp,z,1,-10.14,0,10.14,0,-7.16,-7.16,7.16,-7.16,-7.16,7.16,7.16,7.16,2,112,0.5128371000027983,81,82,10,SL,2,F,28,R,2025-05-13_13h58.29.309,RewSL_SL_EEG,
ping,high,midLeft,DOWN,red,r,lowA,Stimuli\red_bar1.png,Stimuli\red_bar1.png,Stimuli\ping.png,midRight,lowB,downLeft,lowC,downRight,upLeft,upRight,1,m,,,,,0,82,82,18,,,0.4,0.7,exp,z,0,-10.14,0,10.14,0,-7.16,-7.16,7.16,-7.16,-7.16,7.16,7.16,7.16,2,212,0.5378654999949504,82,83,10,SL,2,F,28,R,2025-05-13_13h58.29.309,RewSL_SL_EEG,
ping,lowA,midRight,UP,green,r,high,Stimuli\green_bar1.png,Stimuli\green_bar1.png,Stimuli\ping.png,midLeft,lowB,downLeft,lowC,downRight,upLeft,upRight,1,z,,,,,0,83,83,57,,,0.6,0.7,exp,z,1,10.14,0,-10.14,0,-7.16,-7.16,7.16,-7.16,-7.16,7.16,7.16,7.16,2,122,0.5966840999899432,83,84,10,SL,2,F,28,R,2025-05-13_13h58.29.309,RewSL_SL_EEG,
ping,high,midLeft,DOWN,red,r,lowA,Stimuli\red_bar1.png,Stimuli\red_bar1.png,Stimuli\ping.png,midRight,lowB,downLeft,lowC,downRight,upLeft,upRight,1,m,,,,,0,84,84,34,,,0.6,0.6,exp,m,1,-10.14,0,10.14,0,-7.16,-7.16,7.16,-7.16,-7.16,7.16,7.16,7.16,2,212,0.6801065000036033,84,85,10,SL,2,F,28,R,2025-05-13_13h58.29.309,RewSL_SL_EEG,
ping,lowB,downLeft,UP,green,r,lowA,Stimuli\green_bar1.png,Stimuli\green_bar1.png,Stimuli\ping.png,midRight,high,midLeft,lowC,downRight,upLeft,upRight,1,z,,,,,0,85,85,81,,,0.4,0.6,exp,z,1,-7.16,-7.16,10.14,0,-10.14,0,7.16,-7.16,-7.16,7.16,7.16,7.16,2,132,0.8297839000006206,85,86,10,SL,2,F,28,R,2025-05-13_13h58.29.309,RewSL_SL_EEG,
ping,high,midLeft,DOWN,green,r,lowA,Stimuli\green_bar1.png,Stimuli\green_bar1.png,Stimuli\ping.png,midRight,lowB,downLeft,lowC,downRight,upLeft,upRight,1,m,,,,,0,86,86,43,,,0.4,0.8,exp,m,1,-10.14,0,10.14,0,-7.16,-7.16,7.16,-7.16,-7.16,7.16,7.16,7.16,2,212,1.0129085000080522,86,87,10,SL,2,F,28,R,2025-05-13_13h58.29.309,RewSL_SL_EEG,
ping,high,midLeft,UP,red,l,lowA,Stimuli\red_bar1.png,Stimuli\red_bar1.png,Stimuli\ping.png,midRight,lowB,downLeft,lowC,downRight,upLeft,upRight,1,z,,,,,0,87,87,20,,,0.5,0.7,exp,z,1,-10.14,0,10.14,0,-7.16,-7.16,7.16,-7.16,-7.16,7.16,7.16,7.16,2,112,0.7294152999966173,87,88,10,SL,2,F,28,R,2025-05-13_13h58.29.309,RewSL_SL_EEG,
ping,high,midLeft,DOWN,red,r,lowA,Stimuli\red_bar1.png,Stimuli\red_bar1.png,Stimuli\ping.png,midRight,lowB,downLeft,lowC,downRight,upLeft,upRight,1,m,,,,,0,88,88,26,,,0.5,0.8,exp,m,1,-10.14,0,10.14,0,-7.16,-7.16,7.16,-7.16,-7.16,7.16,7.16,7.16,2,212,0.6461871000065003,88,89,10,SL,2,F,28,R,2025-05-13_13h58.29.309,RewSL_SL_EEG,
ping,lowC,downRight,UP,green,l,lowA,Stimuli\green_bar1.png,Stimuli\green_bar1.png,Stimuli\ping.png,midRight,lowB,downLeft,high,midLeft,upLeft,upRight,1,z,,,,,0,89,89,93,,,0.4,0.7,exp,m,0,7.16,-7.16,10.14,0,-7.16,-7.16,-10.14,0,-7.16,7.16,7.16,7.16,2,142,0.899978799992823,89,90,10,SL,2,F,28,R,2025-05-13_13h58.29.309,RewSL_SL_EEG,
ping,lowC,downRight,UP,green,r,lowA,Stimuli\green_bar1.png,Stimuli\green_bar1.png,Stimuli\ping.png,midRight,lowB,downLeft,high,midLeft,upLeft,upRight,1,z,,,,,0,90,90,97,,,0.6,0.7,exp,z,1,7.16,-7.16,10.14,0,-7.16,-7.16,-10.14,0,-7.16,7.16,7.16,7.16,2,142,0.6222712000017054,90,91,10,SL,2,F,28,R,2025-05-13_13h58.29.309,RewSL_SL_EEG,
ping,lowA,midRight,UP,red,r,high,Stimuli\red_bar1.png,Stimuli\red_bar1.png,Stimuli\ping.png,midLeft,lowB,downLeft,lowC,downRight,upLeft,upRight,1,z,,,,,0,91,91,64,,,0.5,0.6,exp,z,1,10.14,0,-10.14,0,-7.16,-7.16,7.16,-7.16,-7.16,7.16,7.16,7.16,2,122,0.6118093000113731,91,92,10,SL,2,F,28,R,2025-05-13_13h58.29.309,RewSL_SL_EEG,
ping,lowC,downRight,DOWN,green,l,lowA,Stimuli\green_bar1.png,Stimuli\green_bar1.png,Stimuli\ping.png,midRight,lowB,downLeft,high,midLeft,upLeft,upRight,1,m,,,,,0,92,92,95,,,0.5,0.7,exp,m,1,7.16,-7.16,10.14,0,-7.16,-7.16,-10.14,0,-7.16,7.16,7.16,7.16,2,242,0.5295773999969242,92,93,10,SL,2,F,28,R,2025-05-13_13h58.29.309,RewSL_SL_EEG,
ping,lowB,downLeft,DOWN,red,r,lowA,Stimuli\red_bar1.png,Stimuli\red_bar1.png,Stimuli\ping.png,midRight,high,midLeft,lowC,downRight,upLeft,upRight,1,m,,,,,0,93,93,74,,,0.4,0.8,exp,m,1,-7.16,-7.16,10.14,0,-10.14,0,7.16,-7.16,-7.16,7.16,7.16,7.16,2,232,0.5751631999883102,93,94,10,SL,2,F,28,R,2025-05-13_13h58.29.309,RewSL_SL_EEG,
ping,high,midLeft,DOWN,red,l,lowA,Stimuli\red_bar1.png,Stimuli\red_bar1.png,Stimuli\ping.png,midRight,lowB,downLeft,lowC,downRight,upLeft,upRight,1,m,,,,,0,94,94,46,,,0.5,0.6,exp,m,1,-10.14,0,10.14,0,-7.16,-7.16,7.16,-7.16,-7.16,7.16,7.16,7.16,2,212,0.5469519999896875,94,95,10,SL,2,F,28,R,2025-05-13_13h58.29.309,RewSL_SL_EEG,
ping,lowC,downRight,DOWN,red,l,lowA,Stimuli\red_bar1.png,Stimuli\red_bar1.png,Stimuli\ping.png,midRight,lowB,downLeft,high,midLeft,upLeft,upRight,1,m,,,,,0,95,95,86,,,0.4,0.6,exp,m,1,7.16,-7.16,10.14,0,-7.16,-7.16,-10.14,0,-7.16,7.16,7.16,7.16,2,242,0.663994200003799,95,96,10,SL,2,F,28,R,2025-05-13_13h58.29.309,RewSL_SL_EEG,
ping,high,midLeft,UP,green,l,lowA,Stimuli\green_bar1.png,Stimuli\green_bar1.png,Stimuli\ping.png,midRight,lowB,downLeft,lowC,downRight,upLeft,upRight,1,z,,,,,0,96,96,21,,,0.5,0.7,exp,z,1,-10.14,0,10.14,0,-7.16,-7.16,7.16,-7.16,-7.16,7.16,7.16,7.16,2,112,0.6203315000020666,96,97,10,SL,2,F,28,R,2025-05-13_13h58.29.309,RewSL_SL_EEG,
ping,lowC,downRight,UP,red,l,lowA,Stimuli\red_bar1.png,Stimuli\red_bar1.png,Stimuli\ping.png,midRight,lowB,downLeft,high,midLeft,upLeft,upRight,1,z,,,,,0,97,97,92,,,0.4,0.7,exp,z,1,7.16,-7.16,10.14,0,-7.16,-7.16,-10.14,0,-7.16,7.16,7.16,7.16,2,142,0.6630265999992844,97,98,10,SL,2,F,28,R,2025-05-13_13h58.29.309,RewSL_SL_EEG,
ping,lowA,midRight,UP,green,l,high,Stimuli\green_bar1.png,Stimuli\green_bar1.png,Stimuli\ping.png,midLeft,lowB,downLeft,lowC,downRight,upLeft,upRight,1,z,,,,,0,98,98,61,,,0.5,0.8,exp,z,1,10.14,0,-10.14,0,-7.16,-7.16,7.16,-7.16,-7.16,7.16,7.16,7.16,2,122,0.5675191999907838,98,99,10,SL,2,F,28,R,2025-05-13_13h58.29.309,RewSL_SL_EEG,
ping,lowA,midRight,DOWN,red,r,high,Stimuli\red_bar1.png,Stimuli\red_bar1.png,Stimuli\ping.png,midLeft,lowB,downLeft,lowC,downRight,upLeft,upRight,1,m,,,,,0,99,99,58,,,0.4,0.7,exp,m,1,10.14,0,-10.14,0,-7.16,-7.16,7.16,-7.16,-7.16,7.16,7.16,7.16,2,222,0.5554236000025412,99,100,10,SL,2,F,28,R,2025-05-13_13h58.29.309,RewSL_SL_EEG,
ping,lowB,midLeft,UP,red,r,lowA,Stimuli\red_bar1.png,Stimuli\red_bar1.png,Stimuli\ping.png,downRight,high,downLeft,lowC,midRight,upLeft,upRight,3,z,,,,,0,0,0,76,,,0.5,0.7,exp,z,1,-10.14,0,7.16,-7.16,-7.16,-7.16,10.14,0,-7.16,7.16,7.16,7.16,6,116,0.6748262000037357,100,101,10,SL,2,F,28,R,2025-05-13_13h58.29.309,RewSL_SL_EEG,
ping,lowC,midRight,UP,red,l,lowA,Stimuli\red_bar1.png,Stimuli\red_bar1.png,Stimuli\ping.png,downRight,lowB,midLeft,high,downLeft,upLeft,upRight,3,z,,,,,0,1,1,88,,,0.6,0.6,exp,z,1,10.14,0,7.16,-7.16,-10.14,0,-7.16,-7.16,-7.16,7.16,7.16,7.16,6,126,0.796828300008201,101,102,10,SL,2,F,28,R,2025-05-13_13h58.29.309,RewSL_SL_EEG,
ping,lowC,midRight,DOWN,green,l,lowA,Stimuli\green_bar1.png,Stimuli\green_bar1.png,Stimuli\ping.png,downRight,lowB,midLeft,high,downLeft,upLeft,upRight,3,m,,,,,0,2,2,99,,,0.5,0.7,exp,m,1,10.14,0,7.16,-7.16,-10.14,0,-7.16,-7.16,-7.16,7.16,7.16,7.16,6,226,0.5707912999932887,102,103,10,SL,2,F,28,R,2025-05-13_13h58.29.309,RewSL_SL_EEG,
ping,high,downLeft,DOWN,red,r,lowA,Stimuli\red_bar1.png,Stimuli\red_bar1.png,Stimuli\ping.png,downRight,lowB,midLeft,lowC,midRight,upLeft,upRight,3,m,,,,,0,3,3,14,,,0.5,0.8,exp,m,1,-7.16,-7.16,7.16,-7.16,-10.14,0,10.14,0,-7.16,7.16,7.16,7.16,6,236,0.7444907000026433,103,104,10,SL,2,F,28,R,2025-05-13_13h58.29.309,RewSL_SL_EEG,
ping,high,downLeft,DOWN,green,l,lowA,Stimuli\green_bar1.png,Stimuli\green_bar1.png,Stimuli\ping.png,downRight,lowB,midLeft,lowC,midRight,upLeft,upRight,3,m,,,,,0,4,4,27,,,0.5,0.7,exp,m,1,-7.16,-7.16,7.16,-7.16,-10.14,0,10.14,0,-7.16,7.16,7.16,7.16,6,236,0.6960037000098964,104,105,10,SL,2,F,28,R,2025-05-13_13h58.29.309,RewSL_SL_EEG,
ping,high,downLeft,DOWN,green,r,lowA,Stimuli\green_bar1.png,Stimuli\green_bar1.png,Stimuli\ping.png,downRight,lowB,midLeft,lowC,midRight,upLeft,upRight,3,m,,,,,0,5,5,39,,,0.5,0.7,exp,m,1,-7.16,-7.16,7.16,-7.16,-10.14,0,10.14,0,-7.16,7.16,7.16,7.16,6,236,0.6177518999902532,105,106,10,SL,2,F,28,R,2025-05-13_13h58.29.309,RewSL_SL_EEG,
ping,lowB,midLeft,DOWN,green,l,lowA,Stimuli\green_bar1.png,Stimuli\green_bar1.png,Stimuli\ping.png,downRight,high,downLeft,lowC,midRight,upLeft,upRight,3,m,,,,,0,6,6,75,,,0.6,0.6,exp,m,1,-10.14,0,7.16,-7.16,-7.16,-7.16,10.14,0,-7.16,7.16,7.16,7.16,6,216,0.5845962000021245,106,107,10,SL,2,F,28,R,2025-05-13_13h58.29.309,RewSL_SL_EEG,
ping,lowB,midLeft,DOWN,red,l,lowA,Stimuli\red_bar1.png,Stimuli\red_bar1.png,Stimuli\ping.png,downRight,high,downLeft,lowC,midRight,upLeft,upRight,3,m,,,,,0,7,7,82,,,0.4,0.6,exp,m,1,-10.14,0,7.16,-7.16,-7.16,-7.16,10.14,0,-7.16,7.16,7.16,7.16,6,216,0.4965356000029715,107,108,10,SL,2,F,28,R,2025-05-13_13h58.29.309,RewSL_SL_EEG,
ping,lowA,downRight,DOWN,green,l,high,Stimuli\green_bar1.png,Stimuli\green_bar1.png,Stimuli\ping.png,downLeft,lowB,midLeft,lowC,midRight,upLeft,upRight,3,m,,,,,0,8,8,59,,,0.4,0.7,exp,z,0,7.16,-7.16,-7.16,-7.16,-10.14,0,10.14,0,-7.16,7.16,7.16,7.16,6,246,0.7458705000026384,108,109,10,SL,2,F,28,R,2025-05-13_13h58.29.309,RewSL_SL_EEG,
ping,high,downLeft,UP,green,l,lowA,Stimuli\green_bar1.png,Stimuli\green_bar1.png,Stimuli\ping.png,downRight,lowB,midLeft,lowC,midRight,upLeft,upRight,3,z,,,,,0,9,9,41,,,0.5,0.7,exp,z,1,-7.16,-7.16,7.16,-7.16,-10.14,0,10.14,0,-7.16,7.16,7.16,7.16,6,136,0.7557053000055021,109,110,10,SL,2,F,28,R,2025-05-13_13h58.29.309,RewSL_SL_EEG,
ping,high,downLeft,DOWN,green,l,lowA,Stimuli\green_bar1.png,Stimuli\green_bar1.png,Stimuli\ping.png,downRight,lowB,midLeft,lowC,midRight,upLeft,upRight,3,m,,,,,0,10,10,3,,,0.6,0.7,exp,m,1,-7.16,-7.16,7.16,-7.16,-10.14,0,10.14,0,-7.16,7.16,7.16,7.16,6,236,0.5761734999978216,110,111,10,SL,2,F,28,R,2025-05-13_13h58.29.309,RewSL_SL_EEG,
ping,lowC,midRight,UP,green,l,lowA,Stimuli\green_bar1.png,Stimuli\green_bar1.png,Stimuli\ping.png,downRight,lowB,midLeft,high,downLeft,upLeft,upRight,3,z,,,,,0,11,11,89,,,0.5,0.8,exp,z,1,10.14,0,7.16,-7.16,-10.14,0,-7.16,-7.16,-7.16,7.16,7.16,7.16,6,126,0.611944999996922,111,112,10,SL,2,F,28,R,2025-05-13_13h58.29.309,RewSL_SL_EEG,
ping,high,downLeft,DOWN,red,r,lowA,Stimuli\red_bar1.png,Stimuli\red_bar1.png,Stimuli\ping.png,downRight,lowB,midLeft,lowC,midRight,upLeft,upRight,3,m,,,,,0,12,12,22,,,0.6,0.7,exp,m,1,-7.16,-7.16,7.16,-7.16,-10.14,0,10.14,0,-7.16,7.16,7.16,7.16,6,236,0.6535881999880075,112,113,10,SL,2,F,28,R,2025-05-13_13h58.29.309,RewSL_SL_EEG,
ping,lowA,downRight,DOWN,red,l,high,Stimuli\red_bar1.png,Stimuli\red_bar1.png,Stimuli\ping.png,downLeft,lowB,midLeft,lowC,midRight,upLeft,upRight,3,m,,,,,0,13,13,58,,,0.5,0.6,exp,m,1,7.16,-7.16,-7.16,-7.16,-10.14,0,10.14,0,-7.16,7.16,7.16,7.16,6,246,0.5964596999983769,113,114,10,SL,2,F,28,R,2025-05-13_13h58.29.309,RewSL_SL_EEG,
ping,high,downLeft,UP,red,l,lowA,Stimuli\red_bar1.png,Stimuli\red_bar1.png,Stimuli\ping.png,downRight,lowB,midLeft,lowC,midRight,upLeft,upRight,3,z,,,,,0,14,14,16,,,0.4,0.8,exp,z,1,-7.16,-7.16,7.16,-7.16,-10.14,0,10.14,0,-7.16,7.16,7.16,7.16,6,136,0.7179904000076931,114,115,10,SL,2,F,28,R,2025-05-13_13h58.29.309,RewSL_SL_EEG,
ping,high,downLeft,DOWN,green,r,lowA,Stimuli\green_bar1.png,Stimuli\green_bar1.png,Stimuli\ping.png,downRight,lowB,midLeft,lowC,midRight,upLeft,upRight,3,m,,,,,0,15,15,31,,,0.5,0.8,exp,m,1,-7.16,-7.16,7.16,-7.16,-10.14,0,10.14,0,-7.16,7.16,7.16,7.16,6,236,0.7702181000058772,115,116,10,SL,2,F,28,R,2025-05-13_13h58.29.309,RewSL_SL_EEG,
ping,high,downLeft,DOWN,red,l,lowA,Stimuli\red_bar1.png,Stimuli\red_bar1.png,Stimuli\ping.png,downRight,lowB,midLeft,lowC,midRight,upLeft,upRight,3,m,,,,,0,16,16,18,,,0.4,0.6,exp,m,1,-7.16,-7.16,7.16,-7.16,-10.14,0,10.14,0,-7.16,7.16,7.16,7.16,6,236,0.7121156999928644,116,117,10,SL,2,F,28,R,2025-05-13_13h58.29.309,RewSL_SL_EEG,
ping,lowA,downRight,DOWN,green,r,high,Stimuli\green_bar1.png,Stimuli\green_bar1.png,Stimuli\ping.png,downLeft,lowB,midLeft,lowC,midRight,upLeft,upRight,3,m,,,,,0,17,17,55,,,0.4,0.8,exp,m,1,7.16,-7.16,-7.16,-7.16,-10.14,0,10.14,0,-7.16,7.16,7.16,7.16,6,246,0.6768244999984745,117,118,10,SL,2,F,28,R,2025-05-13_13h58.29.309,RewSL_SL_EEG,
ping,high,downLeft,UP,red,r,lowA,Stimuli\red_bar1.png,Stimuli\red_bar1.png,Stimuli\ping.png,downRight,lowB,midLeft,lowC,midRight,upLeft,upRight,3,z,,,,,0,18,18,20,,,0.4,0.7,exp,z,1,-7.16,-7.16,7.16,-7.16,-10.14,0,10.14,0,-7.16,7.16,7.16,7.16,6,136,0.6592576000111876,118,119,10,SL,2,F,28,R,2025-05-13_13h58.29.309,RewSL_SL_EEG,
ping,lowC,midRight,DOWN,green,l,lowA,Stimuli\green_bar1.png,Stimuli\green_bar1.png,Stimuli\ping.png,downRight,lowB,midLeft,high,downLeft,upLeft,upRight,3,m,,,,,0,19,19,91,,,0.4,0.8,exp,z,0,10.14,0,7.16,-7.16,-10.14,0,-7.16,-7.16,-7.16,7.16,7.16,7.16,6,226,0.5551734000036959,119,120,10,SL,2,F,28,R,2025-05-13_13h58.29.309,RewSL_SL_EEG,
ping,high,downLeft,DOWN,green,r,lowA,Stimuli\green_bar1.png,Stimuli\green_bar1.png,Stimuli\ping.png,downRight,lowB,midLeft,lowC,midRight,upLeft,upRight,3,m,,,,,0,20,20,47,,,0.6,0.8,exp,m,1,-7.16,-7.16,7.16,-7.16,-10.14,0,10.14,0,-7.16,7.16,7.16,7.16,6,236,0.6299858999991557,120,121,10,SL,2,F,28,R,2025-05-13_13h58.29.309,RewSL_SL_EEG,
ping,high,downLeft,UP,green,l,lowA,Stimuli\green_bar1.png,Stimuli\green_bar1.png,Stimuli\ping.png,downRight,lowB,midLeft,lowC,midRight,upLeft,upRight,3,z,,,,,0,21,21,9,,,0.4,0.7,exp,m,0,-7.16,-7.16,7.16,-7.16,-10.14,0,10.14,0,-7.16,7.16,7.16,7.16,6,136,0.6622340000030817,121,122,10,SL,2,F,28,R,2025-05-13_13h58.29.309,RewSL_SL_EEG,
ping,lowB,midLeft,UP,green,r,lowA,Stimuli\green_bar1.png,Stimuli\green_bar1.png,Stimuli\ping.png,downRight,high,downLeft,lowC,midRight,upLeft,upRight,3,z,,,,,0,22,22,77,,,0.6,0.8,exp,z,1,-10.14,0,7.16,-7.16,-7.16,-7.16,10.14,0,-7.16,7.16,7.16,7.16,6,116,0.721807699999772,122,123,10,SL,2,F,28,R,2025-05-13_13h58.29.309,RewSL_SL_EEG,
ping,lowB,midLeft,DOWN,green,r,lowA,Stimuli\green_bar1.png,Stimuli\green_bar1.png,Stimuli\ping.png,downRight,high,downLeft,lowC,midRight,upLeft,upRight,3,m,,,,,0,23,23,79,,,0.6,0.7,exp,m,1,-10.14,0,7.16,-7.16,-7.16,-7.16,10.14,0,-7.16,7.16,7.16,7.16,6,216,0.6268046000041068,123,124,10,SL,2,F,28,R,2025-05-13_13h58.29.309,RewSL_SL_EEG,
ping,lowA,downRight,DOWN,red,r,high,Stimuli\red_bar1.png,Stimuli\red_bar1.png,Stimuli\ping.png,downLeft,lowB,midLeft,lowC,midRight,upLeft,upRight,3,m,,,,,0,24,24,54,,,0.6,0.8,exp,z,0,7.16,-7.16,-7.16,-7.16,-10.14,0,10.14,0,-7.16,7.16,7.16,7.16,6,246,0.7043139000015799,124,125,10,SL,2,F,28,R,2025-05-13_13h58.29.309,RewSL_SL_EEG,
ping,lowC,midRight,UP,green,r,lowA,Stimuli\green_bar1.png,Stimuli\green_bar1.png,Stimuli\ping.png,downRight,lowB,midLeft,high,downLeft,upLeft,upRight,3,z,,,,,0,25,25,93,,,0.5,0.8,exp,z,1,10.14,0,7.16,-7.16,-10.14,0,-7.16,-7.16,-7.16,7.16,7.16,7.16,6,126,0.5417673000047216,125,126,10,SL,2,F,28,R,2025-05-13_13h58.29.309,RewSL_SL_EEG,
ping,high,downLeft,DOWN,green,r,lowA,Stimuli\green_bar1.png,Stimuli\green_bar1.png,Stimuli\ping.png,downRight,lowB,midLeft,lowC,midRight,upLeft,upRight,3,m,,,,,0,26,26,23,,,0.6,0.7,exp,m,1,-7.16,-7.16,7.16,-7.16,-10.14,0,10.14,0,-7.16,7.16,7.16,7.16,6,236,0.8335325999942143,126,127,10,SL,2,F,28,R,2025-05-13_13h58.29.309,RewSL_SL_EEG,
ping,high,downLeft,UP,green,r,lowA,Stimuli\green_bar1.png,Stimuli\green_bar1.png,Stimuli\ping.png,downRight,lowB,midLeft,lowC,midRight,upLeft,upRight,3,z,,,,,0,27,27,5,,,0.5,0.7,exp,m,0,-7.16,-7.16,7.16,-7.16,-10.14,0,10.14,0,-7.16,7.16,7.16,7.16,6,136,0.8218006999959471,127,128,10,SL,2,F,28,R,2025-05-13_13h58.29.309,RewSL_SL_EEG,
ping,high,downLeft,UP,green,l,lowA,Stimuli\green_bar1.png,Stimuli\green_bar1.png,Stimuli\ping.png,downRight,lowB,midLeft,lowC,midRight,upLeft,upRight,3,z,,,,,0,28,28,49,,,0.6,0.8,exp,z,1,-7.16,-7.16,7.16,-7.16,-10.14,0,10.14,0,-7.16,7.16,7.16,7.16,6,136,0.6138972000044305,128,129,10,SL,2,F,28,R,2025-05-13_13h58.29.309,RewSL_SL_EEG,
ping,high,downLeft,DOWN,red,r,lowA,Stimuli\red_bar1.png,Stimuli\red_bar1.png,Stimuli\ping.png,downRight,lowB,midLeft,lowC,midRight,upLeft,upRight,3,m,,,,,0,29,29,30,,,0.4,0.7,exp,m,1,-7.16,-7.16,7.16,-7.16,-10.14,0,10.14,0,-7.16,7.16,7.16,7.16,6,236,0.6048378999985289,129,130,10,SL,2,F,28,R,2025-05-13_13h58.29.309,RewSL_SL_EEG,
ping,lowB,midLeft,DOWN,red,r,lowA,Stimuli\red_bar1.png,Stimuli\red_bar1.png,Stimuli\ping.png,downRight,high,downLeft,lowC,midRight,upLeft,upRight,3,m,,,,,0,30,30,70,,,0.5,0.7,exp,z,0,-10.14,0,7.16,-7.16,-7.16,-7.16,10.14,0,-7.16,7.16,7.16,7.16,6,216,0.6624471000104677,130,131,10,SL,2,F,28,R,2025-05-13_13h58.29.309,RewSL_SL_EEG,
ping,high,downLeft,DOWN,green,l,lowA,Stimuli\green_bar1.png,Stimuli\green_bar1.png,Stimuli\ping.png,downRight,lowB,midLeft,lowC,midRight,upLeft,upRight,3,m,,,,,0,31,31,51,,,0.5,0.7,exp,m,1,-7.16,-7.16,7.16,-7.16,-10.14,0,10.14,0,-7.16,7.16,7.16,7.16,6,236,0.7366291000071215,131,132,10,SL,2,F,28,R,2025-05-13_13h58.29.309,RewSL_SL_EEG,
ping,high,downLeft,UP,green,l,lowA,Stimuli\green_bar1.png,Stimuli\green_bar1.png,Stimuli\ping.png,downRight,lowB,midLeft,lowC,midRight,upLeft,upRight,3,z,,,,,0,32,32,25,,,0.5,0.8,exp,z,1,-7.16,-7.16,7.16,-7.16,-10.14,0,10.14,0,-7.16,7.16,7.16,7.16,6,136,0.7512229999992996,132,133,10,SL,2,F,28,R,2025-05-13_13h58.29.309,RewSL_SL_EEG,
ping,high,downLeft,DOWN,green,l,lowA,Stimuli\green_bar1.png,Stimuli\green_bar1.png,Stimuli\ping.png,downRight,lowB,midLeft,lowC,midRight,upLeft,upRight,3,m,,,,,0,33,33,11,,,0.5,0.6,exp,m,1,-7.16,-7.16,7.16,-7.16,-10.14,0,10.14,0,-7.16,7.16,7.16,7.16,6,236,0.6197286999959033,133,134,10,SL,2,F,28,R,2025-05-13_13h58.29.309,RewSL_SL_EEG,
ping,lowC,midRight,UP,green,l,lowA,Stimuli\green_bar1.png,Stimuli\green_bar1.png,Stimuli\ping.png,downRight,lowB,midLeft,high,downLeft,upLeft,upRight,3,z,,,,,0,34,34,97,,,0.4,0.8,exp,z,1,10.14,0,7.16,-7.16,-10.14,0,-7.16,-7.16,-7.16,7.16,7.16,7.16,6,126,0.7762289000093006,134,135,10,SL,2,F,28,R,2025-05-13_13h58.29.309,RewSL_SL_EEG,
ping,lowC,midRight,UP,red,r,lowA,Stimuli\red_bar1.png,Stimuli\red_bar1.png,Stimuli\ping.png,downRight,lowB,midLeft,high,downLeft,upLeft,upRight,3,z,,,,,0,35,35,92,,,0.5,0.6,exp,z,1,10.14,0,7.16,-7.16,-10.14,0,-7.16,-7.16,-7.16,7.16,7.16,7.16,6,126,0.5716732000000775,135,136,10,SL,2,F,28,R,2025-05-13_13h58.29.309,RewSL_SL_EEG,
ping,high,downLeft,DOWN,red,l,lowA,Stimuli\red_bar1.png,Stimuli\red_bar1.png,Stimuli\ping.png,downRight,lowB,midLeft,lowC,midRight,upLeft,upRight,3,m,,,,,0,36,36,50,,,0.6,0.7,exp,m,1,-7.16,-7.16,7.16,-7.16,-10.14,0,10.14,0,-7.16,7.16,7.16,7.16,6,236,0.6228654000005918,136,137,10,SL,2,F,28,R,2025-05-13_13h58.29.309,RewSL_SL_EEG,
ping,lowA,downRight,UP,green,r,high,Stimuli\green_bar1.png,Stimuli\green_bar1.png,Stimuli\ping.png,downLeft,lowB,midLeft,lowC,midRight,upLeft,upRight,3,z,,,,,0,37,37,61,,,0.6,0.7,exp,z,1,7.16,-7.16,-7.16,-7.16,-10.14,0,10.14,0,-7.16,7.16,7.16,7.16,6,146,0.7031817999959458,137,138,10,SL,2,F,28,R,2025-05-13_13h58.29.309,RewSL_SL_EEG,
ping,lowB,midLeft,UP,green,r,lowA,Stimuli\green_bar1.png,Stimuli\green_bar1.png,Stimuli\ping.png,downRight,high,downLeft,lowC,midRight,upLeft,upRight,3,z,,,,,0,38,38,69,,,0.4,0.7,exp,z,1,-10.14,0,7.16,-7.16,-7.16,-7.16,10.14,0,-7.16,7.16,7.16,7.16,6,116,0.571363700000802,138,139,10,SL,2,F,28,R,2025-05-13_13h58.29.309,RewSL_SL_EEG,
ping,lowB,midLeft,DOWN,green,r,lowA,Stimuli\green_bar1.png,Stimuli\green_bar1.png,Stimuli\ping.png,downRight,high,downLeft,lowC,midRight,upLeft,upRight,3,m,,,,,0,39,39,71,,,0.6,0.6,exp,m,1,-10.14,0,7.16,-7.16,-7.16,-7.16,10.14,0,-7.16,7.16,7.16,7.16,6,216,0.6295390000013867,139,140,10,SL,2,F,28,R,2025-05-13_13h58.29.309,RewSL_SL_EEG,
ping,high,downLeft,DOWN,red,l,lowA,Stimuli\red_bar1.png,Stimuli\red_bar1.png,Stimuli\ping.png,downRight,lowB,midLeft,lowC,midRight,upLeft,upRight,3,m,,,,,0,40,40,10,,,0.4,0.7,exp,m,1,-7.16,-7.16,7.16,-7.16,-10.14,0,10.14,0,-7.16,7.16,7.16,7.16,6,236,0.6027582999959122,140,141,10,SL,2,F,28,R,2025-05-13_13h58.29.309,RewSL_SL_EEG,
ping,lowB,midLeft,UP,green,l,lowA,Stimuli\green_bar1.png,Stimuli\green_bar1.png,Stimuli\ping.png,downRight,high,downLeft,lowC,midRight,upLeft,upRight,3,z,,,,,0,41,41,81,,,0.4,0.8,exp,z,1,-10.14,0,7.16,-7.16,-7.16,-7.16,10.14,0,-7.16,7.16,7.16,7.16,6,116,0.5289954999898328,141,142,10,SL,2,F,28,R,2025-05-13_13h58.29.309,RewSL_SL_EEG,
ping,lowC,midRight,UP,green,r,lowA,Stimuli\green_bar1.png,Stimuli\green_bar1.png,Stimuli\ping.png,downRight,lowB,midLeft,high,downLeft,upLeft,upRight,3,z,,,,,0,42,42,85,,,0.6,0.6,exp,z,1,10.14,0,7.16,-7.16,-10.14,0,-7.16,-7.16,-7.16,7.16,7.16,7.16,6,126,0.4969280999939656,142,143,10,SL,2,F,28,R,2025-05-13_13h58.29.309,RewSL_SL_EEG,
ping,lowC,midRight,DOWN,red,r,lowA,Stimuli\red_bar1.png,Stimuli\red_bar1.png,Stimuli\ping.png,downRight,lowB,midLeft,high,downLeft,upLeft,upRight,3,m,,,,,0,43,43,86,,,0.4,0.8,exp,m,1,10.14,0,7.16,-7.16,-10.14,0,-7.16,-7.16,-7.16,7.16,7.16,7.16,6,226,0.5126522000064142,143,144,10,SL,2,F,28,R,2025-05-13_13h58.29.309,RewSL_SL_EEG,
ping,high,downLeft,UP,red,l,lowA,Stimuli\red_bar1.png,Stimuli\red_bar1.png,Stimuli\ping.png,downRight,lowB,midLeft,lowC,midRight,upLeft,upRight,3,z,,,,,0,44,44,24,,,0.5,0.7,exp,z,1,-7.16,-7.16,7.16,-7.16,-10.14,0,10.14,0,-7.16,7.16,7.16,7.16,6,136,0.6390929000044707,144,145,10,SL,2,F,28,R,2025-05-13_13h58.29.309,RewSL_SL_EEG,
ping,lowB,midLeft,UP,green,l,lowA,Stimuli\green_bar1.png,Stimuli\green_bar1.png,Stimuli\ping.png,downRight,high,downLeft,lowC,midRight,upLeft,upRight,3,z,,,,,0,45,45,73,,,0.5,0.7,exp,z,1,-10.14,0,7.16,-7.16,-7.16,-7.16,10.14,0,-7.16,7.16,7.16,7.16,6,116,0.5525407000095583,145,146,10,SL,2,F,28,R,2025-05-13_13h58.29.309,RewSL_SL_EEG,
ping,high,downLeft,DOWN,red,l,lowA,Stimuli\red_bar1.png,Stimuli\red_bar1.png,Stimuli\ping.png,downRight,lowB,midLeft,lowC,midRight,upLeft,upRight,3,m,,,,,0,46,46,26,,,0.5,0.6,exp,m,1,-7.16,-7.16,7.16,-7.16,-10.14,0,10.14,0,-7.16,7.16,7.16,7.16,6,236,0.687534600001527,146,147,10,SL,2,F,28,R,2025-05-13_13h58.29.309,RewSL_SL_EEG,
ping,lowB,midLeft,DOWN,red,r,lowA,Stimuli\red_bar1.png,Stimuli\red_bar1.png,Stimuli\ping.png,downRight,high,downLeft,lowC,midRight,upLeft,upRight,3,m,,,,,0,47,47,78,,,0.5,0.7,exp,m,1,-10.14,0,7.16,-7.16,-7.16,-7.16,10.14,0,-7.16,7.16,7.16,7.16,6,216,0.7754891999938991,147,148,10,SL,2,F,28,R,2025-05-13_13h58.29.309,RewSL_SL_EEG,
ping,lowA,downRight,UP,red,r,high,Stimuli\red_bar1.png,Stimuli\red_bar1.png,Stimuli\ping.png,downLeft,lowB,midLeft,lowC,midRight,upLeft,upRight,3,z,,,,,0,48,48,52,,,0.4,0.7,exp,z,1,7.16,-7.16,-7.16,-7.16,-10.14,0,10.14,0,-7.16,7.16,7.16,7.16,6,146,0.6475907999993069,148,149,10,SL,2,F,28,R,2025-05-13_13h58.29.309,RewSL_SL_EEG,
ping,high,downLeft,UP,red,r,lowA,Stimuli\red_bar1.png,Stimuli\red_bar1.png,Stimuli\ping.png,downRight,lowB,midLeft,lowC,midRight,upLeft,upRight,3,z,,,,,0,49,49,44,,,0.5,0.8,exp,z,1,-7.16,-7.16,7.16,-7.16,-10.14,0,10.14,0,-7.16,7.16,7.16,7.16,6,136,0.6552728999959072,149,150,10,SL,2,F,28,R,2025-05-13_13h58.29.309,RewSL_SL_EEG,
ping,high,downLeft,UP,red,r,lowA,Stimuli\red_bar1.png,Stimuli\red_bar1.png,Stimuli\ping.png,downRight,lowB,midLeft,lowC,midRight,upLeft,upRight,3,z,,,,,0,50,50,28,,,0.6,0.7,exp,z,1,-7.16,-7.16,7.16,-7.16,-10.14,0,10.14,0,-7.16,7.16,7.16,7.16,6,136,0.5469371000071988,150,151,10,SL,2,F,28,R,2025-05-13_13h58.29.309,RewSL_SL_EEG,
ping,high,downLeft,UP,red,l,lowA,Stimuli\red_bar1.png,Stimuli\red_bar1.png,Stimuli\ping.png,downRight,lowB,midLeft,lowC,midRight,upLeft,upRight,3,z,,,,,0,51,51,48,,,0.6,0.6,exp,z,1,-7.16,-7.16,7.16,-7.16,-10.14,0,10.14,0,-7.16,7.16,7.16,7.16,6,136,0.7964204000018071,151,152,10,SL,2,F,28,R,2025-05-13_13h58.29.309,RewSL_SL_EEG,
ping,high,downLeft,UP,red,l,lowA,Stimuli\red_bar1.png,Stimuli\red_bar1.png,Stimuli\ping.png,downRight,lowB,midLeft,lowC,midRight,upLeft,upRight,3,z,,,,,0,52,52,32,,,0.5,0.7,exp,z,1,-7.16,-7.16,7.16,-7.16,-10.14,0,10.14,0,-7.16,7.16,7.16,7.16,6,136,0.9973048000101699,152,153,10,SL,2,F,28,R,2025-05-13_13h58.29.309,RewSL_SL_EEG,
ping,lowA,downRight,UP,red,l,high,Stimuli\red_bar1.png,Stimuli\red_bar1.png,Stimuli\ping.png,downLeft,lowB,midLeft,lowC,midRight,upLeft,upRight,3,z,,,,,0,53,53,64,,,0.5,0.8,exp,z,1,7.16,-7.16,-7.16,-7.16,-10.14,0,10.14,0,-7.16,7.16,7.16,7.16,6,146,0.6044972999952734,153,154,10,SL,2,F,28,R,2025-05-13_13h58.29.309,RewSL_SL_EEG,
ping,lowA,downRight,UP,red,l,high,Stimuli\red_bar1.png,Stimuli\red_bar1.png,Stimuli\ping.png,downLeft,lowB,midLeft,lowC,midRight,upLeft,upRight,3,z,,,,,0,54,54,56,,,0.5,0.7,exp,m,0,7.16,-7.16,-7.16,-7.16,-10.14,0,10.14,0,-7.16,7.16,7.16,7.16,6,146,1.0130997999949614,154,155,10,SL,2,F,28,R,2025-05-13_13h58.29.309,RewSL_SL_EEG,
ping,high,downLeft,DOWN,green,l,lowA,Stimuli\green_bar1.png,Stimuli\green_bar1.png,Stimuli\ping.png,downRight,lowB,midLeft,lowC,midRight,upLeft,upRight,3,m,,,,,0,55,55,35,,,0.5,0.7,exp,m,1,-7.16,-7.16,7.16,-7.16,-10.14,0,10.14,0,-7.16,7.16,7.16,7.16,6,236,1.0712930000008782,155,156,10,SL,2,F,28,R,2025-05-13_13h58.29.309,RewSL_SL_EEG,
ping,high,downLeft,DOWN,green,r,lowA,Stimuli\green_bar1.png,Stimuli\green_bar1.png,Stimuli\ping.png,downRight,lowB,midLeft,lowC,midRight,upLeft,upRight,3,m,,,,,0,56,56,7,,,0.6,0.6,exp,m,1,-7.16,-7.16,7.16,-7.16,-10.14,0,10.14,0,-7.16,7.16,7.16,7.16,6,236,0.6721830000024056,156,157,10,SL,2,F,28,R,2025-05-13_13h58.29.309,RewSL_SL_EEG,
ping,high,downLeft,UP,red,l,lowA,Stimuli\red_bar1.png,Stimuli\red_bar1.png,Stimuli\ping.png,downRight,lowB,midLeft,lowC,midRight,upLeft,upRight,3,z,,,,,0,57,57,0,,,0.5,0.7,exp,z,1,-7.16,-7.16,7.16,-7.16,-10.14,0,10.14,0,-7.16,7.16,7.16,7.16,6,136,0.6394088999950327,157,158,10,SL,2,F,28,R,2025-05-13_13h58.29.309,RewSL_SL_EEG,
ping,lowB,midLeft,UP,red,r,lowA,Stimuli\red_bar1.png,Stimuli\red_bar1.png,Stimuli\ping.png,downRight,high,downLeft,lowC,midRight,upLeft,upRight,3,z,,,,,0,58,58,68,,,0.4,0.6,exp,z,1,-10.14,0,7.16,-7.16,-7.16,-7.16,10.14,0,-7.16,7.16,7.16,7.16,6,116,0.7714101000019582,158,159,10,SL,2,F,28,R,2025-05-13_13h58.29.309,RewSL_SL_EEG,
ping,high,downLeft,UP,red,l,lowA,Stimuli\red_bar1.png,Stimuli\red_bar1.png,Stimuli\ping.png,downRight,lowB,midLeft,lowC,midRight,upLeft,upRight,3,z,,,,,0,59,59,40,,,0.5,0.6,exp,z,1,-7.16,-7.16,7.16,-7.16,-10.14,0,10.14,0,-7.16,7.16,7.16,7.16,6,136,0.5716303000081098,159,160,10,SL,2,F,28,R,2025-05-13_13h58.29.309,RewSL_SL_EEG,
ping,lowB,midLeft,DOWN,green,l,lowA,Stimuli\green_bar1.png,Stimuli\green_bar1.png,Stimuli\ping.png,downRight,high,downLeft,lowC,midRight,upLeft,upRight,3,m,,,,,0,60,60,83,,,0.4,0.7,exp,m,1,-10.14,0,7.16,-7.16,-7.16,-7.16,10.14,0,-7.16,7.16,7.16,7.16,6,216,0.7839849000010872,160,161,10,SL,2,F,28,R,2025-05-13_13h58.29.309,RewSL_SL_EEG,
ping,lowB,midLeft,UP,red,l,lowA,Stimuli\red_bar1.png,Stimuli\red_bar1.png,Stimuli\ping.png,downRight,high,downLeft,lowC,midRight,upLeft,upRight,3,z,,,,,0,61,61,80,,,0.4,0.6,exp,z,1,-10.14,0,7.16,-7.16,-7.16,-7.16,10.14,0,-7.16,7.16,7.16,7.16,6,116,0.5289750000083586,161,162,10,SL,2,F,28,R,2025-05-13_13h58.29.309,RewSL_SL_EEG,
ping,lowC,midRight,DOWN,red,l,lowA,Stimuli\red_bar1.png,Stimuli\red_bar1.png,Stimuli\ping.png,downRight,lowB,midLeft,high,downLeft,upLeft,upRight,3,m,,,,,0,62,62,98,,,0.6,0.6,exp,m,1,10.14,0,7.16,-7.16,-10.14,0,-7.16,-7.16,-7.16,7.16,7.16,7.16,6,226,0.5217493999953149,162,163,10,SL,2,F,28,R,2025-05-13_13h58.29.309,RewSL_SL_EEG,
ping,high,downLeft,DOWN,red,r,lowA,Stimuli\red_bar1.png,Stimuli\red_bar1.png,Stimuli\ping.png,downRight,lowB,midLeft,lowC,midRight,upLeft,upRight,3,m,,,,,0,63,63,46,,,0.5,0.6,exp,m,1,-7.16,-7.16,7.16,-7.16,-10.14,0,10.14,0,-7.16,7.16,7.16,7.16,6,236,0.6109088999946835,163,164,10,SL,2,F,28,R,2025-05-13_13h58.29.309,RewSL_SL_EEG,
ping,lowA,downRight,UP,red,r,high,Stimuli\red_bar1.png,Stimuli\red_bar1.png,Stimuli\ping.png,downLeft,lowB,midLeft,lowC,midRight,upLeft,upRight,3,z,,,,,0,64,64,60,,,0.5,0.7,exp,z,1,7.16,-7.16,-7.16,-7.16,-10.14,0,10.14,0,-7.16,7.16,7.16,7.16,6,146,0.6277821999974549,164,165,10,SL,2,F,28,R,2025-05-13_13h58.29.309,RewSL_SL_EEG,
ping,lowA,downRight,DOWN,green,r,high,Stimuli\green_bar1.png,Stimuli\green_bar1.png,Stimuli\ping.png,downLeft,lowB,midLeft,lowC,midRight,upLeft,upRight,3,m,,,,,0,65,65,63,,,0.6,0.8,exp,m,1,7.16,-7.16,-7.16,-7.16,-10.14,0,10.14,0,-7.16,7.16,7.16,7.16,6,246,0.5211245999962557,165,166,10,SL,2,F,28,R,2025-05-13_13h58.29.309,RewSL_SL_EEG,
ping,high,downLeft,DOWN,red,r,lowA,Stimuli\red_bar1.png,Stimuli\red_bar1.png,Stimuli\ping.png,downRight,lowB,midLeft,lowC,midRight,upLeft,upRight,3,m,,,,,0,66,66,6,,,0.5,0.6,exp,m,1,-7.16,-7.16,7.16,-7.16,-10.14,0,10.14,0,-7.16,7.16,7.16,7.16,6,236,0.7459198999858927,166,167,10,SL,2,F,28,R,2025-05-13_13h58.29.309,RewSL_SL_EEG,
ping,lowC,midRight,DOWN,red,l,lowA,Stimuli\red_bar1.png,Stimuli\red_bar1.png,Stimuli\ping.png,downRight,lowB,midLeft,high,downLeft,upLeft,upRight,3,m,,,,,0,67,67,90,,,0.5,0.6,exp,m,1,10.14,0,7.16,-7.16,-10.14,0,-7.16,-7.16,-7.16,7.16,7.16,7.16,6,226,0.6297781000030227,167,168,10,SL,2,F,28,R,2025-05-13_13h58.29.309,RewSL_SL_EEG,
ping,lowC,midRight,UP,red,l,lowA,Stimuli\red_bar1.png,Stimuli\red_bar1.png,Stimuli\ping.png,downRight,lowB,midLeft,high,downLeft,upLeft,upRight,3,z,,,,,0,68,68,96,,,0.5,0.8,exp,z,1,10.14,0,7.16,-7.16,-10.14,0,-7.16,-7.16,-7.16,7.16,7.16,7.16,6,126,0.6133612000121502,168,169,10,SL,2,F,28,R,2025-05-13_13h58.29.309,RewSL_SL_EEG,
ping,high,downLeft,DOWN,red,l,lowA,Stimuli\red_bar1.png,Stimuli\red_bar1.png,Stimuli\ping.png,downRight,lowB,midLeft,lowC,midRight,upLeft,upRight,3,m,,,,,0,69,69,34,,,0.5,0.6,exp,m,1,-7.16,-7.16,7.16,-7.16,-10.14,0,10.14,0,-7.16,7.16,7.16,7.16,6,236,0.5294958000013139,169,170,10,SL,2,F,28,R,2025-05-13_13h58.29.309,RewSL_SL_EEG,
ping,high,downLeft,DOWN,green,l,lowA,Stimuli\green_bar1.png,Stimuli\green_bar1.png,Stimuli\ping.png,downRight,lowB,midLeft,lowC,midRight,upLeft,upRight,3,m,,,,,0,70,70,19,,,0.5,0.8,exp,m,1,-7.16,-7.16,7.16,-7.16,-10.14,0,10.14,0,-7.16,7.16,7.16,7.16,6,236,0.5458744000061415,170,171,10,SL,2,F,28,R,2025-05-13_13h58.29.309,RewSL_SL_EEG,
ping,high,downLeft,DOWN,green,r,lowA,Stimuli\green_bar1.png,Stimuli\green_bar1.png,Stimuli\ping.png,downRight,lowB,midLeft,lowC,midRight,upLeft,upRight,3,m,,,,,0,71,71,15,,,0.4,0.8,exp,m,1,-7.16,-7.16,7.16,-7.16,-10.14,0,10.14,0,-7.16,7.16,7.16,7.16,6,236,0.6883937999955378,171,172,10,SL,2,F,28,R,2025-05-13_13h58.29.309,RewSL_SL_EEG,
ping,high,downLeft,UP,red,l,lowA,Stimuli\red_bar1.png,Stimuli\red_bar1.png,Stimuli\ping.png,downRight,lowB,midLeft,lowC,midRight,upLeft,upRight,3,z,,,,,0,72,72,8,,,0.4,0.7,exp,z,1,-7.16,-7.16,7.16,-7.16,-10.14,0,10.14,0,-7.16,7.16,7.16,7.16,6,136,0.6379759999981616,172,173,10,SL,2,F,28,R,2025-05-13_13h58.29.309,RewSL_SL_EEG,
ping,lowA,downRight,DOWN,red,r,high,Stimuli\red_bar1.png,Stimuli\red_bar1.png,Stimuli\ping.png,downLeft,lowB,midLeft,lowC,midRight,upLeft,upRight,3,m,,,,,0,73,73,62,,,0.5,0.7,exp,m,1,7.16,-7.16,-7.16,-7.16,-10.14,0,10.14,0,-7.16,7.16,7.16,7.16,6,246,0.6965320000017527,173,174,10,SL,2,F,28,R,2025-05-13_13h58.29.309,RewSL_SL_EEG,
ping,lowA,downRight,UP,green,l,high,Stimuli\green_bar1.png,Stimuli\green_bar1.png,Stimuli\ping.png,downLeft,lowB,midLeft,lowC,midRight,upLeft,upRight,3,z,,,,,0,74,74,57,,,0.6,0.8,exp,m,0,7.16,-7.16,-7.16,-7.16,-10.14,0,10.14,0,-7.16,7.16,7.16,7.16,6,146,0.6456907999963732,174,175,10,SL,2,F,28,R,2025-05-13_13h58.29.309,RewSL_SL_EEG,
ping,high,downLeft,UP,red,r,lowA,Stimuli\red_bar1.png,Stimuli\red_bar1.png,Stimuli\ping.png,downRight,lowB,midLeft,lowC,midRight,upLeft,upRight,3,z,,,,,0,75,75,12,,,0.6,0.6,exp,z,1,-7.16,-7.16,7.16,-7.16,-10.14,0,10.14,0,-7.16,7.16,7.16,7.16,6,136,0.7169838999980129,175,176,10,SL,2,F,28,R,2025-05-13_13h58.29.309,RewSL_SL_EEG,
ping,lowC,midRight,DOWN,red,r,lowA,Stimuli\red_bar1.png,Stimuli\red_bar1.png,Stimuli\ping.png,downRight,lowB,midLeft,high,downLeft,upLeft,upRight,3,m,,,,,0,76,76,94,,,0.4,0.7,exp,m,1,10.14,0,7.16,-7.16,-10.14,0,-7.16,-7.16,-7.16,7.16,7.16,7.16,6,226,0.6050645999930566,176,177,10,SL,2,F,28,R,2025-05-13_13h58.29.309,RewSL_SL_EEG,
ping,high,downLeft,UP,green,r,lowA,Stimuli\green_bar1.png,Stimuli\green_bar1.png,Stimuli\ping.png,downRight,lowB,midLeft,lowC,midRight,upLeft,upRight,3,z,,,,,0,77,77,21,,,0.5,0.7,exp,z,1,-7.16,-7.16,7.16,-7.16,-10.14,0,10.14,0,-7.16,7.16,7.16,7.16,6,136,0.8210785000119358,177,178,10,SL,2,F,28,R,2025-05-13_13h58.29.309,RewSL_SL_EEG,
ping,lowB,midLeft,UP,red,l,lowA,Stimuli\red_bar1.png,Stimuli\red_bar1.png,Stimuli\ping.png,downRight,high,downLeft,lowC,midRight,upLeft,upRight,3,z,,,,,0,78,78,72,,,0.4,0.6,exp,z,1,-10.14,0,7.16,-7.16,-7.16,-7.16,10.14,0,-7.16,7.16,7.16,7.16,6,116,0.6711193999944953,178,179,10,SL,2,F,28,R,2025-05-13_13h58.29.309,RewSL_SL_EEG,
ping,lowA,downRight,UP,green,r,high,Stimuli\green_bar1.png,Stimuli\green_bar1.png,Stimuli\ping.png,downLeft,lowB,midLeft,lowC,midRight,upLeft,upRight,3,z,,,,,0,79,79,53,,,0.4,0.6,exp,z,1,7.16,-7.16,-7.16,-7.16,-10.14,0,10.14,0,-7.16,7.16,7.16,7.16,6,146,0.629807899997104,179,180,10,SL,2,F,28,R,2025-05-13_13h58.29.309,RewSL_SL_EEG,
ping,high,downLeft,DOWN,red,l,lowA,Stimuli\red_bar1.png,Stimuli\red_bar1.png,Stimuli\ping.png,downRight,lowB,midLeft,lowC,midRight,upLeft,upRight,3,m,,,,,0,80,80,42,,,0.5,0.7,exp,z,0,-7.16,-7.16,7.16,-7.16,-10.14,0,10.14,0,-7.16,7.16,7.16,7.16,6,236,0.7042343999928562,180,181,10,SL,2,F,28,R,2025-05-13_13h58.29.309,RewSL_SL_EEG,
ping,high,downLeft,UP,red,r,lowA,Stimuli\red_bar1.png,Stimuli\red_bar1.png,Stimuli\ping.png,downRight,lowB,midLeft,lowC,midRight,upLeft,upRight,3,z,,,,,0,81,81,36,,,0.6,0.8,exp,z,1,-7.16,-7.16,7.16,-7.16,-10.14,0,10.14,0,-7.16,7.16,7.16,7.16,6,136,0.6341648999950849,181,182,10,SL,2,F,28,R,2025-05-13_13h58.29.309,RewSL_SL_EEG,
ping,high,downLeft,UP,green,l,lowA,Stimuli\green_bar1.png,Stimuli\green_bar1.png,Stimuli\ping.png,downRight,lowB,midLeft,lowC,midRight,upLeft,upRight,3,z,,,,,0,82,82,17,,,0.5,0.7,exp,m,0,-7.16,-7.16,7.16,-7.16,-10.14,0,10.14,0,-7.16,7.16,7.16,7.16,6,136,0.6874633999977959,182,183,10,SL,2,F,28,R,2025-05-13_13h58.29.309,RewSL_SL_EEG,
ping,high,downLeft,UP,red,r,lowA,Stimuli\red_bar1.png,Stimuli\red_bar1.png,Stimuli\ping.png,downRight,lowB,midLeft,lowC,midRight,upLeft,upRight,3,z,,,,,0,83,83,4,,,0.6,0.6,exp,z,1,-7.16,-7.16,7.16,-7.16,-10.14,0,10.14,0,-7.16,7.16,7.16,7.16,6,136,0.6374982000124874,183,184,10,SL,2,F,28,R,2025-05-13_13h58.29.309,RewSL_SL_EEG,
ping,lowB,midLeft,DOWN,red,l,lowA,Stimuli\red_bar1.png,Stimuli\red_bar1.png,Stimuli\ping.png,downRight,high,downLeft,lowC,midRight,upLeft,upRight,3,m,,,,,0,84,84,74,,,0.4,0.7,exp,m,1,-10.14,0,7.16,-7.16,-7.16,-7.16,10.14,0,-7.16,7.16,7.16,7.16,6,216,0.8592104999988806,184,185,10,SL,2,F,28,R,2025-05-13_13h58.29.309,RewSL_SL_EEG,
ping,high,downLeft,DOWN,green,l,lowA,Stimuli\green_bar1.png,Stimuli\green_bar1.png,Stimuli\ping.png,downRight,lowB,midLeft,lowC,midRight,upLeft,upRight,3,m,,,,,0,85,85,43,,,0.4,0.6,exp,m,1,-7.16,-7.16,7.16,-7.16,-10.14,0,10.14,0,-7.16,7.16,7.16,7.16,6,236,0.8045687999983784,185,186,10,SL,2,F,28,R,2025-05-13_13h58.29.309,RewSL_SL_EEG,
ping,high,downLeft,DOWN,red,r,lowA,Stimuli\red_bar1.png,Stimuli\red_bar1.png,Stimuli\ping.png,downRight,lowB,midLeft,lowC,midRight,upLeft,upRight,3,m,,,,,0,86,86,38,,,0.4,0.7,exp,m,1,-7.16,-7.16,7.16,-7.16,-10.14,0,10.14,0,-7.16,7.16,7.16,7.16,6,236,0.6714330000104383,186,187,10,SL,2,F,28,R,2025-05-13_13h58.29.309,RewSL_SL_EEG,
ping,high,downLeft,UP,green,r,lowA,Stimuli\green_bar1.png,Stimuli\green_bar1.png,Stimuli\ping.png,downRight,lowB,midLeft,lowC,midRight,upLeft,upRight,3,z,,,,,0,87,87,13,,,0.6,0.7,exp,z,1,-7.16,-7.16,7.16,-7.16,-10.14,0,10.14,0,-7.16,7.16,7.16,7.16,6,136,0.6547112999978708,187,188,10,SL,2,F,28,R,2025-05-13_13h58.29.309,RewSL_SL_EEG,
ping,high,downLeft,UP,green,l,lowA,Stimuli\green_bar1.png,Stimuli\green_bar1.png,Stimuli\ping.png,downRight,lowB,midLeft,lowC,midRight,upLeft,upRight,3,z,,,,,0,88,88,33,,,0.6,0.6,exp,z,1,-7.16,-7.16,7.16,-7.16,-10.14,0,10.14,0,-7.16,7.16,7.16,7.16,6,136,0.6546658000006573,188,189,10,SL,2,F,28,R,2025-05-13_13h58.29.309,RewSL_SL_EEG,
ping,high,downLeft,UP,green,l,lowA,Stimuli\green_bar1.png,Stimuli\green_bar1.png,Stimuli\ping.png,downRight,lowB,midLeft,lowC,midRight,upLeft,upRight,3,z,,,,,0,89,89,1,,,0.5,0.6,exp,z,1,-7.16,-7.16,7.16,-7.16,-10.14,0,10.14,0,-7.16,7.16,7.16,7.16,6,136,0.5809834999963641,189,190,10,SL,2,F,28,R,2025-05-13_13h58.29.309,RewSL_SL_EEG,
ping,lowC,midRight,DOWN,green,r,lowA,Stimuli\green_bar1.png,Stimuli\green_bar1.png,Stimuli\ping.png,downRight,lowB,midLeft,high,downLeft,upLeft,upRight,3,m,,,,,0,90,90,95,,,0.5,0.7,exp,m,1,10.14,0,7.16,-7.16,-10.14,0,-7.16,-7.16,-7.16,7.16,7.16,7.16,6,226,0.5473504999972647,190,191,10,SL,2,F,28,R,2025-05-13_13h58.29.309,RewSL_SL_EEG,
ping,lowA,downRight,DOWN,red,l,high,Stimuli\red_bar1.png,Stimuli\red_bar1.png,Stimuli\ping.png,downLeft,lowB,midLeft,lowC,midRight,upLeft,upRight,3,m,,,,,0,91,91,66,,,0.5,0.7,exp,m,1,7.16,-7.16,-7.16,-7.16,-10.14,0,10.14,0,-7.16,7.16,7.16,7.16,6,246,0.6017221000074642,191,192,10,SL,2,F,28,R,2025-05-13_13h58.29.309,RewSL_SL_EEG,
ping,high,downLeft,UP,green,r,lowA,Stimuli\green_bar1.png,Stimuli\green_bar1.png,Stimuli\ping.png,downRight,lowB,midLeft,lowC,midRight,upLeft,upRight,3,z,,,,,0,92,92,37,,,0.6,0.6,exp,z,1,-7.16,-7.16,7.16,-7.16,-10.14,0,10.14,0,-7.16,7.16,7.16,7.16,6,136,1.1282885000109673,192,193,10,SL,2,F,28,R,2025-05-13_13h58.29.309,RewSL_SL_EEG,
ping,high,downLeft,DOWN,red,l,lowA,Stimuli\red_bar1.png,Stimuli\red_bar1.png,Stimuli\ping.png,downRight,lowB,midLeft,lowC,midRight,upLeft,upRight,3,m,,,,,0,93,93,2,,,0.5,0.7,exp,m,1,-7.16,-7.16,7.16,-7.16,-10.14,0,10.14,0,-7.16,7.16,7.16,7.16,6,236,1.0124869999999646,193,194,10,SL,2,F,28,R,2025-05-13_13h58.29.309,RewSL_SL_EEG,
ping,lowA,downRight,DOWN,green,l,high,Stimuli\green_bar1.png,Stimuli\green_bar1.png,Stimuli\ping.png,downLeft,lowB,midLeft,lowC,midRight,upLeft,upRight,3,m,,,,,0,94,94,67,,,0.4,0.6,exp,m,1,7.16,-7.16,-7.16,-7.16,-10.14,0,10.14,0,-7.16,7.16,7.16,7.16,6,246,0.9462033000017982,194,195,10,SL,2,F,28,R,2025-05-13_13h58.29.309,RewSL_SL_EEG,
ping,lowA,downRight,UP,green,l,high,Stimuli\green_bar1.png,Stimuli\green_bar1.png,Stimuli\ping.png,downLeft,lowB,midLeft,lowC,midRight,upLeft,upRight,3,z,,,,,0,95,95,65,,,0.4,0.7,exp,z,1,7.16,-7.16,-7.16,-7.16,-10.14,0,10.14,0,-7.16,7.16,7.16,7.16,6,146,0.8135380000021541,195,196,10,SL,2,F,28,R,2025-05-13_13h58.29.309,RewSL_SL_EEG,
ping,high,downLeft,UP,green,r,lowA,Stimuli\green_bar1.png,Stimuli\green_bar1.png,Stimuli\ping.png,downRight,lowB,midLeft,lowC,midRight,upLeft,upRight,3,z,,,,,0,96,96,45,,,0.5,0.6,exp,z,1,-7.16,-7.16,7.16,-7.16,-10.14,0,10.14,0,-7.16,7.16,7.16,7.16,6,136,0.7977913999930024,196,197,10,SL,2,F,28,R,2025-05-13_13h58.29.309,RewSL_SL_EEG,
ping,high,downLeft,UP,green,r,lowA,Stimuli\green_bar1.png,Stimuli\green_bar1.png,Stimuli\ping.png,downRight,lowB,midLeft,lowC,midRight,upLeft,upRight,3,z,,,,,0,97,97,29,,,0.4,0.7,exp,z,1,-7.16,-7.16,7.16,-7.16,-10.14,0,10.14,0,-7.16,7.16,7.16,7.16,6,136,0.8508083000051556,197,198,10,SL,2,F,28,R,2025-05-13_13h58.29.309,RewSL_SL_EEG,
ping,lowC,midRight,UP,red,r,lowA,Stimuli\red_bar1.png,Stimuli\red_bar1.png,Stimuli\ping.png,downRight,lowB,midLeft,high,downLeft,upLeft,upRight,3,z,,,,,0,98,98,84,,,0.5,0.8,exp,z,1,10.14,0,7.16,-7.16,-10.14,0,-7.16,-7.16,-7.16,7.16,7.16,7.16,6,126,0.6290093999996316,198,199,10,SL,2,F,28,R,2025-05-13_13h58.29.309,RewSL_SL_EEG,
ping,lowC,midRight,DOWN,green,r,lowA,Stimuli\green_bar1.png,Stimuli\green_bar1.png,Stimuli\ping.png,downRight,lowB,midLeft,high,downLeft,upLeft,upRight,3,m,,,,,0,99,99,87,,,0.5,0.7,exp,m,1,10.14,0,7.16,-7.16,-10.14,0,-7.16,-7.16,-7.16,7.16,7.16,7.16,6,226,0.6211292000079993,199,200,10,SL,2,F,28,R,2025-05-13_13h58.29.309,RewSL_SL_EEG,
ping,high,midRight,UP,red,l,lowA,Stimuli\red_bar1.png,Stimuli\red_bar1.png,Stimuli\ping.png,midLeft,lowB,downRight,lowC,downLeft,upLeft,upRight,2,z,,,,,0,0,0,48,,,0.6,0.7,exp,z,1,10.14,0,-10.14,0,7.16,-7.16,-7.16,-7.16,-7.16,7.16,7.16,7.16,4,124,0.747458199999528,200,201,10,SL,2,F,28,R,2025-05-13_13h58.29.309,RewSL_SL_EEG,
ping,high,midRight,DOWN,green,r,lowA,Stimuli\green_bar1.png,Stimuli\green_bar1.png,Stimuli\ping.png,midLeft,lowB,downRight,lowC,downLeft,upLeft,upRight,2,m,,,,,0,1,1,31,,,0.5,0.7,exp,m,1,10.14,0,-10.14,0,7.16,-7.16,-7.16,-7.16,-7.16,7.16,7.16,7.16,4,224,0.5288100999896415,201,202,10,SL,2,F,28,R,2025-05-13_13h58.29.309,RewSL_SL_EEG,
ping,lowB,downRight,UP,green,r,lowA,Stimuli\green_bar1.png,Stimuli\green_bar1.png,Stimuli\ping.png,midLeft,high,midRight,lowC,downLeft,upLeft,upRight,2,z,,,,,0,2,2,77,,,0.6,0.7,exp,z,1,7.16,-7.16,-10.14,0,10.14,0,-7.16,-7.16,-7.16,7.16,7.16,7.16,4,144,0.8130562000005739,202,203,10,SL,2,F,28,R,2025-05-13_13h58.29.309,RewSL_SL_EEG,
ping,high,midRight,UP,green,l,lowA,Stimuli\green_bar1.png,Stimuli\green_bar1.png,Stimuli\ping.png,midLeft,lowB,downRight,lowC,downLeft,upLeft,upRight,2,z,,,,,0,3,3,41,,,0.4,0.8,exp,z,1,10.14,0,-10.14,0,7.16,-7.16,-7.16,-7.16,-7.16,7.16,7.16,7.16,4,124,0.7385873000021093,203,204,10,SL,2,F,28,R,2025-05-13_13h58.29.309,RewSL_SL_EEG,
ping,lowA,midLeft,UP,red,r,high,Stimuli\red_bar1.png,Stimuli\red_bar1.png,Stimuli\ping.png,midRight,lowB,downRight,lowC,downLeft,upLeft,upRight,2,z,,,,,0,4,4,52,,,0.6,0.7,exp,z,1,-10.14,0,10.14,0,7.16,-7.16,-7.16,-7.16,-7.16,7.16,7.16,7.16,4,114,0.6048713000054704,204,205,10,SL,2,F,28,R,2025-05-13_13h58.29.309,RewSL_SL_EEG,
ping,high,midRight,UP,red,l,lowA,Stimuli\red_bar1.png,Stimuli\red_bar1.png,Stimuli\ping.png,midLeft,lowB,downRight,lowC,downLeft,upLeft,upRight,2,z,,,,,0,5,5,16,,,0.5,0.6,exp,z,1,10.14,0,-10.14,0,7.16,-7.16,-7.16,-7.16,-7.16,7.16,7.16,7.16,4,124,0.6637062000081642,205,206,10,SL,2,F,28,R,2025-05-13_13h58.29.309,RewSL_SL_EEG,
ping,high,midRight,UP,green,l,lowA,Stimuli\green_bar1.png,Stimuli\green_bar1.png,Stimuli\ping.png,midLeft,lowB,downRight,lowC,downLeft,upLeft,upRight,2,z,,,,,0,6,6,9,,,0.4,0.7,exp,z,1,10.14,0,-10.14,0,7.16,-7.16,-7.16,-7.16,-7.16,7.16,7.16,7.16,4,124,0.5461078000080306,206,207,10,SL,2,F,28,R,2025-05-13_13h58.29.309,RewSL_SL_EEG,
ping,high,midRight,DOWN,green,r,lowA,Stimuli\green_bar1.png,Stimuli\green_bar1.png,Stimuli\ping.png,midLeft,lowB,downRight,lowC,downLeft,upLeft,upRight,2,m,,,,,0,7,7,47,,,0.6,0.6,exp,m,1,10.14,0,-10.14,0,7.16,-7.16,-7.16,-7.16,-7.16,7.16,7.16,7.16,4,224,0.7093117000040365,207,208,10,SL,2,F,28,R,2025-05-13_13h58.29.309,RewSL_SL_EEG,
ping,lowB,downRight,DOWN,red,r,lowA,Stimuli\red_bar1.png,Stimuli\red_bar1.png,Stimuli\ping.png,midLeft,high,midRight,lowC,downLeft,upLeft,upRight,2,m,,,,,0,8,8,78,,,0.5,0.8,exp,m,1,7.16,-7.16,-10.14,0,10.14,0,-7.16,-7.16,-7.16,7.16,7.16,7.16,4,244,0.6456439000030514,208,209,10,SL,2,F,28,R,2025-05-13_13h58.29.309,RewSL_SL_EEG,
ping,lowA,midLeft,UP,red,r,high,Stimuli\red_bar1.png,Stimuli\red_bar1.png,Stimuli\ping.png,midRight,lowB,downRight,lowC,downLeft,upLeft,upRight,2,z,,,,,0,9,9,60,,,0.6,0.6,exp,z,1,-10.14,0,10.14,0,7.16,-7.16,-7.16,-7.16,-7.16,7.16,7.16,7.16,4,114,0.5133594999933848,209,210,10,SL,2,F,28,R,2025-05-13_13h58.29.309,RewSL_SL_EEG,
ping,lowB,downRight,UP,green,l,lowA,Stimuli\green_bar1.png,Stimuli\green_bar1.png,Stimuli\ping.png,midLeft,high,midRight,lowC,downLeft,upLeft,upRight,2,z,,,,,0,10,10,73,,,0.5,0.7,exp,z,1,7.16,-7.16,-10.14,0,10.14,0,-7.16,-7.16,-7.16,7.16,7.16,7.16,4,144,0.558381000009831,210,211,10,SL,2,F,28,R,2025-05-13_13h58.29.309,RewSL_SL_EEG,
ping,high,midRight,UP,green,l,lowA,Stimuli\green_bar1.png,Stimuli\green_bar1.png,Stimuli\ping.png,midLeft,lowB,downRight,lowC,downLeft,upLeft,upRight,2,z,,,,,0,11,11,1,,,0.5,0.8,exp,z,1,10.14,0,-10.14,0,7.16,-7.16,-7.16,-7.16,-7.16,7.16,7.16,7.16,4,124,0.49268760000995826,211,212,10,SL,2,F,28,R,2025-05-13_13h58.29.309,RewSL_SL_EEG,
ping,high,midRight,UP,red,l,lowA,Stimuli\red_bar1.png,Stimuli\red_bar1.png,Stimuli\ping.png,midLeft,lowB,downRight,lowC,downLeft,upLeft,upRight,2,z,,,,,0,12,12,24,,,0.5,0.7,exp,z,1,10.14,0,-10.14,0,7.16,-7.16,-7.16,-7.16,-7.16,7.16,7.16,7.16,4,124,0.47181309999723453,212,213,10,SL,2,F,28,R,2025-05-13_13h58.29.309,RewSL_SL_EEG,
ping,high,midRight,UP,green,r,lowA,Stimuli\green_bar1.png,Stimuli\green_bar1.png,Stimuli\ping.png,midLeft,lowB,downRight,lowC,downLeft,upLeft,upRight,2,z,,,,,0,13,13,37,,,0.6,0.7,exp,z,1,10.14,0,-10.14,0,7.16,-7.16,-7.16,-7.16,-7.16,7.16,7.16,7.16,4,124,0.5792529000027571,213,214,10,SL,2,F,28,R,2025-05-13_13h58.29.309,RewSL_SL_EEG,
ping,lowB,downRight,UP,red,l,lowA,Stimuli\red_bar1.png,Stimuli\red_bar1.png,Stimuli\ping.png,midLeft,high,midRight,lowC,downLeft,upLeft,upRight,2,z,,,,,0,14,14,72,,,0.6,0.7,exp,z,1,7.16,-7.16,-10.14,0,10.14,0,-7.16,-7.16,-7.16,7.16,7.16,7.16,4,144,0.5209921999921789,214,215,10,SL,2,F,28,R,2025-05-13_13h58.29.309,RewSL_SL_EEG,
ping,high,midRight,DOWN,red,r,lowA,Stimuli\red_bar1.png,Stimuli\red_bar1.png,Stimuli\ping.png,midLeft,lowB,downRight,lowC,downLeft,upLeft,upRight,2,m,,,,,0,15,15,30,,,0.5,0.6,exp,m,1,10.14,0,-10.14,0,7.16,-7.16,-7.16,-7.16,-7.16,7.16,7.16,7.16,4,224,0.5222540000104345,215,216,10,SL,2,F,28,R,2025-05-13_13h58.29.309,RewSL_SL_EEG,
ping,lowC,downLeft,UP,green,r,lowA,Stimuli\green_bar1.png,Stimuli\green_bar1.png,Stimuli\ping.png,midLeft,lowB,downRight,high,midRight,upLeft,upRight,2,z,,,,,0,16,16,93,,,0.4,0.8,exp,z,1,-7.16,-7.16,-10.14,0,7.16,-7.16,10.14,0,-7.16,7.16,7.16,7.16,4,134,0.903419499998563,216,217,10,SL,2,F,28,R,2025-05-13_13h58.29.309,RewSL_SL_EEG,
ping,lowA,midLeft,DOWN,red,r,high,Stimuli\red_bar1.png,Stimuli\red_bar1.png,Stimuli\ping.png,midRight,lowB,downRight,lowC,downLeft,upLeft,upRight,2,m,,,,,0,17,17,62,,,0.6,0.8,exp,m,1,-10.14,0,10.14,0,7.16,-7.16,-7.16,-7.16,-7.16,7.16,7.16,7.16,4,214,0.5505528000066988,217,218,10,SL,2,F,28,R,2025-05-13_13h58.29.309,RewSL_SL_EEG,
ping,lowB,downRight,DOWN,red,r,lowA,Stimuli\red_bar1.png,Stimuli\red_bar1.png,Stimuli\ping.png,midLeft,high,midRight,lowC,downLeft,upLeft,upRight,2,m,,,,,0,18,18,70,,,0.6,0.7,exp,m,1,7.16,-7.16,-10.14,0,10.14,0,-7.16,-7.16,-7.16,7.16,7.16,7.16,4,244,0.6050908000033814,218,219,10,SL,2,F,28,R,2025-05-13_13h58.29.309,RewSL_SL_EEG,
ping,lowC,downLeft,DOWN,green,l,lowA,Stimuli\green_bar1.png,Stimuli\green_bar1.png,Stimuli\ping.png,midLeft,lowB,downRight,high,midRight,upLeft,upRight,2,m,,,,,0,19,19,91,,,0.4,0.7,exp,z,0,-7.16,-7.16,-10.14,0,7.16,-7.16,10.14,0,-7.16,7.16,7.16,7.16,4,234,0.6871691999986069,219,220,10,SL,2,F,28,R,2025-05-13_13h58.29.309,RewSL_SL_EEG,
ping,lowC,downLeft,UP,red,l,lowA,Stimuli\red_bar1.png,Stimuli\red_bar1.png,Stimuli\ping.png,midLeft,lowB,downRight,high,midRight,upLeft,upRight,2,z,,,,,0,20,20,88,,,0.5,0.6,exp,z,1,-7.16,-7.16,-10.14,0,7.16,-7.16,10.14,0,-7.16,7.16,7.16,7.16,4,134,0.5545779999956721,220,221,10,SL,2,F,28,R,2025-05-13_13h58.29.309,RewSL_SL_EEG,
ping,lowC,downLeft,UP,green,r,lowA,Stimuli\green_bar1.png,Stimuli\green_bar1.png,Stimuli\ping.png,midLeft,lowB,downRight,high,midRight,upLeft,upRight,2,z,,,,,0,21,21,85,,,0.6,0.6,exp,z,1,-7.16,-7.16,-10.14,0,7.16,-7.16,10.14,0,-7.16,7.16,7.16,7.16,4,134,0.6630141999921761,221,222,10,SL,2,F,28,R,2025-05-13_13h58.29.309,RewSL_SL_EEG,
ping,lowC,downLeft,UP,red,l,lowA,Stimuli\red_bar1.png,Stimuli\red_bar1.png,Stimuli\ping.png,midLeft,lowB,downRight,high,midRight,upLeft,upRight,2,z,,,,,0,22,22,96,,,0.4,0.6,exp,z,1,-7.16,-7.16,-10.14,0,7.16,-7.16,10.14,0,-7.16,7.16,7.16,7.16,4,134,0.48860579999745823,222,223,10,SL,2,F,28,R,2025-05-13_13h58.29.309,RewSL_SL_EEG,
ping,lowB,downRight,DOWN,green,r,lowA,Stimuli\green_bar1.png,Stimuli\green_bar1.png,Stimuli\ping.png,midLeft,high,midRight,lowC,downLeft,upLeft,upRight,2,m,,,,,0,23,23,71,,,0.6,0.7,exp,z,0,7.16,-7.16,-10.14,0,10.14,0,-7.16,-7.16,-7.16,7.16,7.16,7.16,4,244,0.8791689999925438,223,224,10,SL,2,F,28,R,2025-05-13_13h58.29.309,RewSL_SL_EEG,
ping,high,midRight,DOWN,red,r,lowA,Stimuli\red_bar1.png,Stimuli\red_bar1.png,Stimuli\ping.png,midLeft,lowB,downRight,lowC,downLeft,upLeft,upRight,2,m,,,,,0,24,24,38,,,0.4,0.7,exp,m,1,10.14,0,-10.14,0,7.16,-7.16,-7.16,-7.16,-7.16,7.16,7.16,7.16,4,224,0.5711586999968858,224,225,10,SL,2,F,28,R,2025-05-13_13h58.29.309,RewSL_SL_EEG,
ping,high,midRight,UP,green,r,lowA,Stimuli\green_bar1.png,Stimuli\green_bar1.png,Stimuli\ping.png,midLeft,lowB,downRight,lowC,downLeft,upLeft,upRight,2,z,,,,,0,25,25,5,,,0.5,0.7,exp,z,1,10.14,0,-10.14,0,7.16,-7.16,-7.16,-7.16,-7.16,7.16,7.16,7.16,4,124,1.0204388999991352,225,226,10,SL,2,F,28,R,2025-05-13_13h58.29.309,RewSL_SL_EEG,
ping,lowB,downRight,DOWN,red,l,lowA,Stimuli\red_bar1.png,Stimuli\red_bar1.png,Stimuli\ping.png,midLeft,high,midRight,lowC,downLeft,upLeft,upRight,2,m,,,,,0,26,26,74,,,0.6,0.8,exp,m,1,7.16,-7.16,-10.14,0,10.14,0,-7.16,-7.16,-7.16,7.16,7.16,7.16,4,244,0.5610089999972843,226,227,10,SL,2,F,28,R,2025-05-13_13h58.29.309,RewSL_SL_EEG,
ping,high,midRight,DOWN,red,l,lowA,Stimuli\red_bar1.png,Stimuli\red_bar1.png,Stimuli\ping.png,midLeft,lowB,downRight,lowC,downLeft,upLeft,upRight,2,m,,,,,0,27,27,34,,,0.5,0.6,exp,m,1,10.14,0,-10.14,0,7.16,-7.16,-7.16,-7.16,-7.16,7.16,7.16,7.16,4,224,0.5466496000008192,227,228,10,SL,2,F,28,R,2025-05-13_13h58.29.309,RewSL_SL_EEG,
ping,high,midRight,DOWN,green,l,lowA,Stimuli\green_bar1.png,Stimuli\green_bar1.png,Stimuli\ping.png,midLeft,lowB,downRight,lowC,downLeft,upLeft,upRight,2,m,,,,,0,28,28,35,,,0.5,0.8,exp,m,1,10.14,0,-10.14,0,7.16,-7.16,-7.16,-7.16,-7.16,7.16,7.16,7.16,4,224,0.5150312000041595,228,229,10,SL,2,F,28,R,2025-05-13_13h58.29.309,RewSL_SL_EEG,
ping,high,midRight,DOWN,green,r,lowA,Stimuli\green_bar1.png,Stimuli\green_bar1.png,Stimuli\ping.png,midLeft,lowB,downRight,lowC,downLeft,upLeft,upRight,2,m,,,,,0,29,29,15,,,0.4,0.7,exp,m,1,10.14,0,-10.14,0,7.16,-7.16,-7.16,-7.16,-7.16,7.16,7.16,7.16,4,224,0.49580669999704696,229,230,10,SL,2,F,28,R,2025-05-13_13h58.29.309,RewSL_SL_EEG,
ping,lowA,midLeft,UP,red,l,high,Stimuli\red_bar1.png,Stimuli\red_bar1.png,Stimuli\ping.png,midRight,lowB,downRight,lowC,downLeft,upLeft,upRight,2,z,,,,,0,30,30,56,,,0.6,0.8,exp,z,1,-10.14,0,10.14,0,7.16,-7.16,-7.16,-7.16,-7.16,7.16,7.16,7.16,4,114,0.5791711000056239,230,231,10,SL,2,F,28,R,2025-05-13_13h58.29.309,RewSL_SL_EEG,
ping,high,midRight,UP,red,r,lowA,Stimuli\red_bar1.png,Stimuli\red_bar1.png,Stimuli\ping.png,midLeft,lowB,downRight,lowC,downLeft,upLeft,upRight,2,z,,,,,0,31,31,36,,,0.5,0.6,exp,z,1,10.14,0,-10.14,0,7.16,-7.16,-7.16,-7.16,-7.16,7.16,7.16,7.16,4,124,0.5129518000030657,231,232,10,SL,2,F,28,R,2025-05-13_13h58.29.309,RewSL_SL_EEG,
ping,lowA,midLeft,UP,green,r,high,Stimuli\green_bar1.png,Stimuli\green_bar1.png,Stimuli\ping.png,midRight,lowB,downRight,lowC,downLeft,upLeft,upRight,2,z,,,,,0,32,32,61,,,0.5,0.7,exp,z,1,-10.14,0,10.14,0,7.16,-7.16,-7.16,-7.16,-7.16,7.16,7.16,7.16,4,114,0.605031200000667,232,233,10,SL,2,F,28,R,2025-05-13_13h58.29.309,RewSL_SL_EEG,
ping,high,midRight,UP,red,l,lowA,Stimuli\red_bar1.png,Stimuli\red_bar1.png,Stimuli\ping.png,midLeft,lowB,downRight,lowC,downLeft,upLeft,upRight,2,z,,,,,0,33,33,8,,,0.4,0.8,exp,z,1,10.14,0,-10.14,0,7.16,-7.16,-7.16,-7.16,-7.16,7.16,7.16,7.16,4,124,0.4784817000036128,233,234,10,SL,2,F,28,R,2025-05-13_13h58.29.309,RewSL_SL_EEG,
ping,high,midRight,UP,red,r,lowA,Stimuli\red_bar1.png,Stimuli\red_bar1.png,Stimuli\ping.png,midLeft,lowB,downRight,lowC,downLeft,upLeft,upRight,2,z,,,,,0,34,34,44,,,0.5,0.7,exp,z,1,10.14,0,-10.14,0,7.16,-7.16,-7.16,-7.16,-7.16,7.16,7.16,7.16,4,124,0.6546315000014147,234,235,10,SL,2,F,28,R,2025-05-13_13h58.29.309,RewSL_SL_EEG,
ping,lowA,midLeft,UP,green,l,high,Stimuli\green_bar1.png,Stimuli\green_bar1.png,Stimuli\ping.png,midRight,lowB,downRight,lowC,downLeft,upLeft,upRight,2,z,,,,,0,35,35,57,,,0.5,0.8,exp,z,1,-10.14,0,10.14,0,7.16,-7.16,-7.16,-7.16,-7.16,7.16,7.16,7.16,4,114,0.6542513000022154,235,236,10,SL,2,F,28,R,2025-05-13_13h58.29.309,RewSL_SL_EEG,
ping,lowB,downRight,UP,red,r,lowA,Stimuli\red_bar1.png,Stimuli\red_bar1.png,Stimuli\ping.png,midLeft,high,midRight,lowC,downLeft,upLeft,upRight,2,z,,,,,0,36,36,76,,,0.5,0.7,exp,z,1,7.16,-7.16,-10.14,0,10.14,0,-7.16,-7.16,-7.16,7.16,7.16,7.16,4,144,0.5451775999972597,236,237,10,SL,2,F,28,R,2025-05-13_13h58.29.309,RewSL_SL_EEG,
ping,high,midRight,DOWN,green,l,lowA,Stimuli\green_bar1.png,Stimuli\green_bar1.png,Stimuli\ping.png,midLeft,lowB,downRight,lowC,downLeft,upLeft,upRight,2,m,,,,,0,37,37,27,,,0.5,0.7,exp,m,1,10.14,0,-10.14,0,7.16,-7.16,-7.16,-7.16,-7.16,7.16,7.16,7.16,4,224,0.6451993999944534,237,238,10,SL,2,F,28,R,2025-05-13_13h58.29.309,RewSL_SL_EEG,
ping,high,midRight,UP,green,r,lowA,Stimuli\green_bar1.png,Stimuli\green_bar1.png,Stimuli\ping.png,midLeft,lowB,downRight,lowC,downLeft,upLeft,upRight,2,z,,,,,0,38,38,45,,,0.5,0.7,exp,z,1,10.14,0,-10.14,0,7.16,-7.16,-7.16,-7.16,-7.16,7.16,7.16,7.16,4,124,0.864368700000341,238,239,10,SL,2,F,28,R,2025-05-13_13h58.29.309,RewSL_SL_EEG,
ping,lowB,downRight,DOWN,green,l,lowA,Stimuli\green_bar1.png,Stimuli\green_bar1.png,Stimuli\ping.png,midLeft,high,midRight,lowC,downLeft,upLeft,upRight,2,m,,,,,0,39,39,75,,,0.5,0.7,exp,m,1,7.16,-7.16,-10.14,0,10.14,0,-7.16,-7.16,-7.16,7.16,7.16,7.16,4,244,1.0049555999867152,239,240,10,SL,2,F,28,R,2025-05-13_13h58.29.309,RewSL_SL_EEG,
ping,lowA,midLeft,DOWN,red,r,high,Stimuli\red_bar1.png,Stimuli\red_bar1.png,Stimuli\ping.png,midRight,lowB,downRight,lowC,downLeft,upLeft,upRight,2,m,,,,,0,40,40,54,,,0.5,0.7,exp,z,0,-10.14,0,10.14,0,7.16,-7.16,-7.16,-7.16,-7.16,7.16,7.16,7.16,4,214,0.5375182999996468,240,241,10,SL,2,F,28,R,2025-05-13_13h58.29.309,RewSL_SL_EEG,
ping,high,midRight,DOWN,green,r,lowA,Stimuli\green_bar1.png,Stimuli\green_bar1.png,Stimuli\ping.png,midLeft,lowB,downRight,lowC,downLeft,upLeft,upRight,2,m,,,,,0,41,41,7,,,0.6,0.6,exp,m,1,10.14,0,-10.14,0,7.16,-7.16,-7.16,-7.16,-7.16,7.16,7.16,7.16,4,224,0.5864792999927886,241,242,10,SL,2,F,28,R,2025-05-13_13h58.29.309,RewSL_SL_EEG,
ping,high,midRight,DOWN,red,r,lowA,Stimuli\red_bar1.png,Stimuli\red_bar1.png,Stimuli\ping.png,midLeft,lowB,downRight,lowC,downLeft,upLeft,upRight,2,m,,,,,0,42,42,14,,,0.5,0.6,exp,m,1,10.14,0,-10.14,0,7.16,-7.16,-7.16,-7.16,-7.16,7.16,7.16,7.16,4,224,0.6614213000138989,242,243,10,SL,2,F,28,R,2025-05-13_13h58.29.309,RewSL_SL_EEG,
ping,high,midRight,UP,green,l,lowA,Stimuli\green_bar1.png,Stimuli\green_bar1.png,Stimuli\ping.png,midLeft,lowB,downRight,lowC,downLeft,upLeft,upRight,2,z,,,,,0,43,43,33,,,0.5,0.8,exp,z,1,10.14,0,-10.14,0,7.16,-7.16,-7.16,-7.16,-7.16,7.16,7.16,7.16,4,124,0.5115280000027269,243,244,10,SL,2,F,28,R,2025-05-13_13h58.29.309,RewSL_SL_EEG,
ping,lowC,downLeft,DOWN,red,l,lowA,Stimuli\red_bar1.png,Stimuli\red_bar1.png,Stimuli\ping.png,midLeft,lowB,downRight,high,midRight,upLeft,upRight,2,m,,,,,0,44,44,90,,,0.6,0.7,exp,z,0,-7.16,-7.16,-10.14,0,7.16,-7.16,10.14,0,-7.16,7.16,7.16,7.16,4,234,0.9783090999990236,244,245,10,SL,2,F,28,R,2025-05-13_13h58.29.309,RewSL_SL_EEG,
ping,high,midRight,UP,red,r,lowA,Stimuli\red_bar1.png,Stimuli\red_bar1.png,Stimuli\ping.png,midLeft,lowB,downRight,lowC,downLeft,upLeft,upRight,2,z,,,,,0,45,45,4,,,0.5,0.8,exp,z,1,10.14,0,-10.14,0,7.16,-7.16,-7.16,-7.16,-7.16,7.16,7.16,7.16,4,124,0.6129241000016918,245,246,10,SL,2,F,28,R,2025-05-13_13h58.29.309,RewSL_SL_EEG,
ping,high,midRight,UP,red,l,lowA,Stimuli\red_bar1.png,Stimuli\red_bar1.png,Stimuli\ping.png,midLeft,lowB,downRight,lowC,downLeft,upLeft,upRight,2,z,,,,,0,46,46,40,,,0.5,0.6,exp,z,1,10.14,0,-10.14,0,7.16,-7.16,-7.16,-7.16,-7.16,7.16,7.16,7.16,4,124,0.8806240999983856,246,247,10,SL,2,F,28,R,2025-05-13_13h58.29.309,RewSL_SL_EEG,
ping,lowC,downLeft,DOWN,green,r,lowA,Stimuli\green_bar1.png,Stimuli\green_bar1.png,Stimuli\ping.png,midLeft,lowB,downRight,high,midRight,upLeft,upRight,2,m,,,,,0,47,47,87,,,0.5,0.8,exp,m,1,-7.16,-7.16,-10.14,0,7.16,-7.16,10.14,0,-7.16,7.16,7.16,7.16,4,234,0.7376249000080861,247,248,10,SL,2,F,28,R,2025-05-13_13h58.29.309,RewSL_SL_EEG,
ping,high,midRight,UP,red,r,lowA,Stimuli\red_bar1.png,Stimuli\red_bar1.png,Stimuli\ping.png,midLeft,lowB,downRight,lowC,downLeft,upLeft,upRight,2,z,,,,,0,48,48,12,,,0.4,0.8,exp,z,1,10.14,0,-10.14,0,7.16,-7.16,-7.16,-7.16,-7.16,7.16,7.16,7.16,4,124,0.5794102999934694,248,249,10,SL,2,F,28,R,2025-05-13_13h58.29.309,RewSL_SL_EEG,
ping,high,midRight,UP,red,r,lowA,Stimuli\red_bar1.png,Stimuli\red_bar1.png,Stimuli\ping.png,midLeft,lowB,downRight,lowC,downLeft,upLeft,upRight,2,z,,,,,0,49,49,20,,,0.4,0.7,exp,z,1,10.14,0,-10.14,0,7.16,-7.16,-7.16,-7.16,-7.16,7.16,7.16,7.16,4,124,0.5747322000097483,249,250,10,SL,2,F,28,R,2025-05-13_13h58.29.309,RewSL_SL_EEG,
ping,high,midRight,DOWN,red,r,lowA,Stimuli\red_bar1.png,Stimuli\red_bar1.png,Stimuli\ping.png,midLeft,lowB,downRight,lowC,downLeft,upLeft,upRight,2,m,,,,,0,50,50,6,,,0.5,0.7,exp,m,1,10.14,0,-10.14,0,7.16,-7.16,-7.16,-7.16,-7.16,7.16,7.16,7.16,4,224,0.714132499997504,250,251,10,SL,2,F,28,R,2025-05-13_13h58.29.309,RewSL_SL_EEG,
ping,lowA,midLeft,DOWN,green,r,high,Stimuli\green_bar1.png,Stimuli\green_bar1.png,Stimuli\ping.png,midRight,lowB,downRight,lowC,downLeft,upLeft,upRight,2,m,,,,,0,51,51,55,,,0.4,0.8,exp,m,1,-10.14,0,10.14,0,7.16,-7.16,-7.16,-7.16,-7.16,7.16,7.16,7.16,4,214,0.6041232999996282,251,252,10,SL,2,F,28,R,2025-05-13_13h58.29.309,RewSL_SL_EEG,
ping,lowC,downLeft,DOWN,red,r,lowA,Stimuli\red_bar1.png,Stimuli\red_bar1.png,Stimuli\ping.png,midLeft,lowB,downRight,high,midRight,upLeft,upRight,2,m,,,,,0,52,52,86,,,0.6,0.6,exp,m,1,-7.16,-7.16,-10.14,0,7.16,-7.16,10.14,0,-7.16,7.16,7.16,7.16,4,234,1.0879820999980439,252,253,10,SL,2,F,28,R,2025-05-13_13h58.29.309,RewSL_SL_EEG,
ping,high,midRight,UP,red,r,lowA,Stimuli\red_bar1.png,Stimuli\red_bar1.png,Stimuli\ping.png,midLeft,lowB,downRight,lowC,downLeft,upLeft,upRight,2,z,,,,,0,53,53,28,,,0.6,0.8,exp,z,1,10.14,0,-10.14,0,7.16,-7.16,-7.16,-7.16,-7.16,7.16,7.16,7.16,4,124,0.5956732000049669,253,254,10,SL,2,F,28,R,2025-05-13_13h58.29.309,RewSL_SL_EEG,
ping,lowA,midLeft,DOWN,green,l,high,Stimuli\green_bar1.png,Stimuli\green_bar1.png,Stimuli\ping.png,midRight,lowB,downRight,lowC,downLeft,upLeft,upRight,2,m,,,,,0,54,54,67,,,0.5,0.6,exp,m,1,-10.14,0,10.14,0,7.16,-7.16,-7.16,-7.16,-7.16,7.16,7.16,7.16,4,214,0.7202707000105875,254,255,10,SL,2,F,28,R,2025-05-13_13h58.29.309,RewSL_SL_EEG,
ping,lowA,midLeft,DOWN,green,r,high,Stimuli\green_bar1.png,Stimuli\green_bar1.png,Stimuli\ping.png,midRight,lowB,downRight,lowC,downLeft,upLeft,upRight,2,m,,,,,0,55,55,63,,,0.4,0.6,exp,m,1,-10.14,0,10.14,0,7.16,-7.16,-7.16,-7.16,-7.16,7.16,7.16,7.16,4,214,0.7044885999930557,255,256,10,SL,2,F,28,R,2025-05-13_13h58.29.309,RewSL_SL_EEG,
ping,high,midRight,DOWN,red,l,lowA,Stimuli\red_bar1.png,Stimuli\red_bar1.png,Stimuli\ping.png,midLeft,lowB,downRight,lowC,downLeft,upLeft,upRight,2,m,,,,,0,56,56,50,,,0.6,0.8,exp,m,1,10.14,0,-10.14,0,7.16,-7.16,-7.16,-7.16,-7.16,7.16,7.16,7.16,4,224,0.5377369999914663,256,257,10,SL,2,F,28,R,2025-05-13_13h58.29.309,RewSL_SL_EEG,
ping,high,midRight,DOWN,green,l,lowA,Stimuli\green_bar1.png,Stimuli\green_bar1.png,Stimuli\ping.png,midLeft,lowB,downRight,lowC,downLeft,upLeft,upRight,2,m,,,,,0,57,57,51,,,0.5,0.7,exp,m,1,10.14,0,-10.14,0,7.16,-7.16,-7.16,-7.16,-7.16,7.16,7.16,7.16,4,224,0.5127277999999933,257,258,10,SL,2,F,28,R,2025-05-13_13h58.29.309,RewSL_SL_EEG,
ping,lowC,downLeft,UP,red,r,lowA,Stimuli\red_bar1.png,Stimuli\red_bar1.png,Stimuli\ping.png,midLeft,lowB,downRight,high,midRight,upLeft,upRight,2,z,,,,,0,58,58,92,,,0.5,0.7,exp,z,1,-7.16,-7.16,-10.14,0,7.16,-7.16,10.14,0,-7.16,7.16,7.16,7.16,4,134,0.7412098000058904,258,259,10,SL,2,F,28,R,2025-05-13_13h58.29.309,RewSL_SL_EEG,
ping,lowA,midLeft,UP,green,l,high,Stimuli\green_bar1.png,Stimuli\green_bar1.png,Stimuli\ping.png,midRight,lowB,downRight,lowC,downLeft,upLeft,upRight,2,z,,,,,0,59,59,65,,,0.6,0.8,exp,m,0,-10.14,0,10.14,0,7.16,-7.16,-7.16,-7.16,-7.16,7.16,7.16,7.16,4,114,0.7945738999987952,259,260,10,SL,2,F,28,R,2025-05-13_13h58.29.309,RewSL_SL_EEG,
ping,high,midRight,DOWN,red,r,lowA,Stimuli\red_bar1.png,Stimuli\red_bar1.png,Stimuli\ping.png,midLeft,lowB,downRight,lowC,downLeft,upLeft,upRight,2,m,,,,,0,60,60,46,,,0.4,0.7,exp,m,1,10.14,0,-10.14,0,7.16,-7.16,-7.16,-7.16,-7.16,7.16,7.16,7.16,4,224,0.5784184000076493,260,261,10,SL,2,F,28,R,2025-05-13_13h58.29.309,RewSL_SL_EEG,
ping,high,midRight,UP,green,r,lowA,Stimuli\green_bar1.png,Stimuli\green_bar1.png,Stimuli\ping.png,midLeft,lowB,downRight,lowC,downLeft,upLeft,upRight,2,z,,,,,0,61,61,21,,,0.4,0.7,exp,z,1,10.14,0,-10.14,0,7.16,-7.16,-7.16,-7.16,-7.16,7.16,7.16,7.16,4,124,0.7295986000099219,261,262,10,SL,2,F,28,R,2025-05-13_13h58.29.309,RewSL_SL_EEG,
ping,high,midRight,UP,green,l,lowA,Stimuli\green_bar1.png,Stimuli\green_bar1.png,Stimuli\ping.png,midLeft,lowB,downRight,lowC,downLeft,upLeft,upRight,2,z,,,,,0,62,62,25,,,0.5,0.8,exp,z,1,10.14,0,-10.14,0,7.16,-7.16,-7.16,-7.16,-7.16,7.16,7.16,7.16,4,124,0.7804550000000745,262,263,10,SL,2,F,28,R,2025-05-13_13h58.29.309,RewSL_SL_EEG,
ping,high,midRight,DOWN,red,l,lowA,Stimuli\red_bar1.png,Stimuli\red_bar1.png,Stimuli\ping.png,midLeft,lowB,downRight,lowC,downLeft,upLeft,upRight,2,m,,,,,0,63,63,42,,,0.5,0.7,exp,m,1,10.14,0,-10.14,0,7.16,-7.16,-7.16,-7.16,-7.16,7.16,7.16,7.16,4,224,0.5198401999950875,263,264,10,SL,2,F,28,R,2025-05-13_13h58.29.309,RewSL_SL_EEG,
ping,lowC,downLeft,UP,red,r,lowA,Stimuli\red_bar1.png,Stimuli\red_bar1.png,Stimuli\ping.png,midLeft,lowB,downRight,high,midRight,upLeft,upRight,2,z,,,,,0,64,64,84,,,0.4,0.7,exp,z,1,-7.16,-7.16,-10.14,0,7.16,-7.16,10.14,0,-7.16,7.16,7.16,7.16,4,134,0.7036674999981187,264,265,10,SL,2,F,28,R,2025-05-13_13h58.29.309,RewSL_SL_EEG,
ping,lowB,downRight,DOWN,red,l,lowA,Stimuli\red_bar1.png,Stimuli\red_bar1.png,Stimuli\ping.png,midLeft,high,midRight,lowC,downLeft,upLeft,upRight,2,m,,,,,0,65,65,82,,,0.6,0.7,exp,m,1,7.16,-7.16,-10.14,0,10.14,0,-7.16,-7.16,-7.16,7.16,7.16,7.16,4,244,0.7125684000056935,265,266,10,SL,2,F,28,R,2025-05-13_13h58.29.309,RewSL_SL_EEG,
ping,high,midRight,DOWN,green,l,lowA,Stimuli\green_bar1.png,Stimuli\green_bar1.png,Stimuli\ping.png,midLeft,lowB,downRight,lowC,downLeft,upLeft,upRight,2,m,,,,,0,66,66,3,,,0.5,0.6,exp,m,1,10.14,0,-10.14,0,7.16,-7.16,-7.16,-7.16,-7.16,7.16,7.16,7.16,4,224,0.5461713999975473,266,267,10,SL,2,F,28,R,2025-05-13_13h58.29.309,RewSL_SL_EEG,
ping,high,midRight,DOWN,green,l,lowA,Stimuli\green_bar1.png,Stimuli\green_bar1.png,Stimuli\ping.png,midLeft,lowB,downRight,lowC,downLeft,upLeft,upRight,2,m,,,,,0,67,67,19,,,0.5,0.8,exp,m,1,10.14,0,-10.14,0,7.16,-7.16,-7.16,-7.16,-7.16,7.16,7.16,7.16,4,224,0.5391495999938343,267,268,10,SL,2,F,28,R,2025-05-13_13h58.29.309,RewSL_SL_EEG,
ping,high,midRight,DOWN,red,l,lowA,Stimuli\red_bar1.png,Stimuli\red_bar1.png,Stimuli\ping.png,midLeft,lowB,downRight,lowC,downLeft,upLeft,upRight,2,m,,,,,0,68,68,18,,,0.6,0.7,exp,m,1,10.14,0,-10.14,0,7.16,-7.16,-7.16,-7.16,-7.16,7.16,7.16,7.16,4,224,0.4478895999927772,268,269,10,SL,2,F,28,R,2025-05-13_13h58.29.309,RewSL_SL_EEG,
ping,lowC,downLeft,DOWN,red,l,lowA,Stimuli\red_bar1.png,Stimuli\red_bar1.png,Stimuli\ping.png,midLeft,lowB,downRight,high,midRight,upLeft,upRight,2,m,,,,,0,69,69,98,,,0.4,0.7,exp,z,0,-7.16,-7.16,-10.14,0,7.16,-7.16,10.14,0,-7.16,7.16,7.16,7.16,4,234,0.6464186999946833,269,270,10,SL,2,F,28,R,2025-05-13_13h58.29.309,RewSL_SL_EEG,
ping,lowC,downLeft,UP,green,l,lowA,Stimuli\green_bar1.png,Stimuli\green_bar1.png,Stimuli\ping.png,midLeft,lowB,downRight,high,midRight,upLeft,upRight,2,z,,,,,0,70,70,97,,,0.6,0.6,exp,z,1,-7.16,-7.16,-10.14,0,7.16,-7.16,10.14,0,-7.16,7.16,7.16,7.16,4,134,0.6512514000060037,270,271,10,SL,2,F,28,R,2025-05-13_13h58.29.309,RewSL_SL_EEG,
ping,lowA,midLeft,DOWN,green,l,high,Stimuli\green_bar1.png,Stimuli\green_bar1.png,Stimuli\ping.png,midRight,lowB,downRight,lowC,downLeft,upLeft,upRight,2,m,,,,,0,71,71,59,,,0.5,0.7,exp,m,1,-10.14,0,10.14,0,7.16,-7.16,-7.16,-7.16,-7.16,7.16,7.16,7.16,4,214,0.6057410999928834,271,272,10,SL,2,F,28,R,2025-05-13_13h58.29.309,RewSL_SL_EEG,
ping,lowB,downRight,UP,green,r,lowA,Stimuli\green_bar1.png,Stimuli\green_bar1.png,Stimuli\ping.png,midLeft,high,midRight,lowC,downLeft,upLeft,upRight,2,z,,,,,0,72,72,69,,,0.5,0.7,exp,z,1,7.16,-7.16,-10.14,0,10.14,0,-7.16,-7.16,-7.16,7.16,7.16,7.16,4,144,0.6370626999996603,272,273,10,SL,2,F,28,R,2025-05-13_13h58.29.309,RewSL_SL_EEG,
ping,lowC,downLeft,UP,green,l,lowA,Stimuli\green_bar1.png,Stimuli\green_bar1.png,Stimuli\ping.png,midLeft,lowB,downRight,high,midRight,upLeft,upRight,2,z,,,,,0,73,73,89,,,0.4,0.7,exp,z,1,-7.16,-7.16,-10.14,0,7.16,-7.16,10.14,0,-7.16,7.16,7.16,7.16,4,134,0.7567915999970865,273,274,10,SL,2,F,28,R,2025-05-13_13h58.29.309,RewSL_SL_EEG,
ping,high,midRight,DOWN,green,l,lowA,Stimuli\green_bar1.png,Stimuli\green_bar1.png,Stimuli\ping.png,midLeft,lowB,downRight,lowC,downLeft,upLeft,upRight,2,m,,,,,0,74,74,11,,,0.5,0.7,exp,m,1,10.14,0,-10.14,0,7.16,-7.16,-7.16,-7.16,-7.16,7.16,7.16,7.16,4,224,0.5302740000042832,274,275,10,SL,2,F,28,R,2025-05-13_13h58.29.309,RewSL_SL_EEG,
ping,lowB,downRight,DOWN,green,r,lowA,Stimuli\green_bar1.png,Stimuli\green_bar1.png,Stimuli\ping.png,midLeft,high,midRight,lowC,downLeft,upLeft,upRight,2,m,,,,,0,75,75,79,,,0.6,0.7,exp,m,1,7.16,-7.16,-10.14,0,10.14,0,-7.16,-7.16,-7.16,7.16,7.16,7.16,4,244,0.7470175000053132,275,276,10,SL,2,F,28,R,2025-05-13_13h58.29.309,RewSL_SL_EEG,
ping,high,midRight,DOWN,red,l,lowA,Stimuli\red_bar1.png,Stimuli\red_bar1.png,Stimuli\ping.png,midLeft,lowB,downRight,lowC,downLeft,upLeft,upRight,2,m,,,,,0,76,76,26,,,0.4,0.7,exp,m,1,10.14,0,-10.14,0,7.16,-7.16,-7.16,-7.16,-7.16,7.16,7.16,7.16,4,224,0.5544956999947317,276,277,10,SL,2,F,28,R,2025-05-13_13h58.29.309,RewSL_SL_EEG,
ping,lowA,midLeft,DOWN,red,l,high,Stimuli\red_bar1.png,Stimuli\red_bar1.png,Stimuli\ping.png,midRight,lowB,downRight,lowC,downLeft,upLeft,upRight,2,m,,,,,0,77,77,66,,,0.5,0.7,exp,m,1,-10.14,0,10.14,0,7.16,-7.16,-7.16,-7.16,-7.16,7.16,7.16,7.16,4,214,0.5303896999976132,277,278,10,SL,2,F,28,R,2025-05-13_13h58.29.309,RewSL_SL_EEG,
ping,high,midRight,UP,red,l,lowA,Stimuli\red_bar1.png,Stimuli\red_bar1.png,Stimuli\ping.png,midLeft,lowB,downRight,lowC,downLeft,upLeft,upRight,2,z,,,,,0,78,78,32,,,0.6,0.6,exp,z,1,10.14,0,-10.14,0,7.16,-7.16,-7.16,-7.16,-7.16,7.16,7.16,7.16,4,124,0.5888413999928162,278,279,10,SL,2,F,28,R,2025-05-13_13h58.29.309,RewSL_SL_EEG,
ping,lowB,downRight,UP,red,l,lowA,Stimuli\red_bar1.png,Stimuli\red_bar1.png,Stimuli\ping.png,midLeft,high,midRight,lowC,downLeft,upLeft,upRight,2,z,,,,,0,79,79,80,,,0.5,0.8,exp,z,1,7.16,-7.16,-10.14,0,10.14,0,-7.16,-7.16,-7.16,7.16,7.16,7.16,4,144,0.597343200002797,279,280,10,SL,2,F,28,R,2025-05-13_13h58.29.309,RewSL_SL_EEG,
ping,high,midRight,UP,green,r,lowA,Stimuli\green_bar1.png,Stimuli\green_bar1.png,Stimuli\ping.png,midLeft,lowB,downRight,lowC,downLeft,upLeft,upRight,2,z,,,,,0,80,80,13,,,0.5,0.7,exp,z,1,10.14,0,-10.14,0,7.16,-7.16,-7.16,-7.16,-7.16,7.16,7.16,7.16,4,124,0.8452921999996761,280,281,10,SL,2,F,28,R,2025-05-13_13h58.29.309,RewSL_SL_EEG,
ping,lowA,midLeft,UP,red,l,high,Stimuli\red_bar1.png,Stimuli\red_bar1.png,Stimuli\ping.png,midRight,lowB,downRight,lowC,downLeft,upLeft,upRight,2,z,,,,,0,81,81,64,,,0.4,0.6,exp,z,1,-10.14,0,10.14,0,7.16,-7.16,-7.16,-7.16,-7.16,7.16,7.16,7.16,4,114,0.47072639998805244,281,282,10,SL,2,F,28,R,2025-05-13_13h58.29.309,RewSL_SL_EEG,
ping,high,midRight,UP,red,l,lowA,Stimuli\red_bar1.png,Stimuli\red_bar1.png,Stimuli\ping.png,midLeft,lowB,downRight,lowC,downLeft,upLeft,upRight,2,z,,,,,0,82,82,0,,,0.4,0.6,exp,z,1,10.14,0,-10.14,0,7.16,-7.16,-7.16,-7.16,-7.16,7.16,7.16,7.16,4,124,0.45618850000028033,282,283,10,SL,2,F,28,R,2025-05-13_13h58.29.309,RewSL_SL_EEG,
ping,high,midRight,UP,green,l,lowA,Stimuli\green_bar1.png,Stimuli\green_bar1.png,Stimuli\ping.png,midLeft,lowB,downRight,lowC,downLeft,upLeft,upRight,2,z,,,,,0,83,83,17,,,0.6,0.7,exp,z,1,10.14,0,-10.14,0,7.16,-7.16,-7.16,-7.16,-7.16,7.16,7.16,7.16,4,124,0.5547803999943426,283,284,10,SL,2,F,28,R,2025-05-13_13h58.29.309,RewSL_SL_EEG,
