trial_type,t_frequency,targetPos,Gap,arrayColor,targetOri,f1_frequency,TargetFile,stimuliFile,pingFile,f1_pos,f2_frequency,f2_pos,f3_frequency,f3_pos,f4_pos,f5_pos,Slblock,corrAns,trials_p.thisRepN,trials_p.thisTrialN,trials_p.thisN,trials_p.thisIndex,trials_e.thisRepN,trials_e.thisTrialN,trials_e.thisN,trials_e.thisIndex,thisRow.t,notes,FIX,PINGdur,epoch,key_resp.keys,key_resp.corr,key_resp.rt,targetX,targetY,filler1X,filler1Y,filler2X,filler2Y,filler3X,filler3Y,filler4X,filler4Y,filler5X,filler5Y,pingID,ID,completed_trials,trial_count,participant,learning,session_nr,gender,age,handedness,date,expName,
ping,high,midLeft,UP,red,r,lowA,Stimuli\red_bar1.png,Stimuli\red_bar1.png,Stimuli\ping.png,midRight,lowB,downLeft,lowC,downRight,upLeft,upRight,1,z,0,0,0,0,,,,,,,0.4,0.7,practice,m,0,0.8519950000336394,-10.14,0,10.14,0,-7.16,-7.16,7.16,-7.16,-7.16,7.16,7.16,7.16,2,112,,,11,SL,1,F,23,R,2025-05-07_10h15.43.338,RewSL_SL_EEG,
ping,lowA,midRight,UP,green,l,high,Stimuli\green_bar1.png,Stimuli\green_bar1.png,Stimuli\ping.png,midLeft,lowB,downLeft,lowC,downRight,upLeft,upRight,1,z,0,1,1,5,,,,,,,0.4,0.6,practice,None,0,,10.14,0,-10.14,0,-7.16,-7.16,7.16,-7.16,-7.16,7.16,7.16,7.16,2,122,,,11,SL,1,F,23,R,2025-05-07_10h15.43.338,RewSL_SL_EEG,
ping,lowA,midRight,DOWN,green,l,high,Stimuli\green_bar1.png,Stimuli\green_bar1.png,Stimuli\ping.png,midLeft,lowB,downLeft,lowC,downRight,upLeft,upRight,1,m,0,2,2,7,,,,,,,0.6,0.8,practice,None,0,,10.14,0,-10.14,0,-7.16,-7.16,7.16,-7.16,-7.16,7.16,7.16,7.16,2,222,,,11,SL,1,F,23,R,2025-05-07_10h15.43.338,RewSL_SL_EEG,
ping,lowC,downRight,UP,red,l,lowA,Stimuli\red_bar1.png,Stimuli\red_bar1.png,Stimuli\ping.png,midRight,lowB,downLeft,high,midLeft,upLeft,upRight,1,z,0,3,3,12,,,,,,,0.6,0.7,practice,None,0,,7.16,-7.16,10.14,0,-7.16,-7.16,-10.14,0,-7.16,7.16,7.16,7.16,2,142,,,11,SL,1,F,23,R,2025-05-07_10h15.43.338,RewSL_SL_EEG,
ping,lowA,midRight,DOWN,red,l,high,Stimuli\red_bar1.png,Stimuli\red_bar1.png,Stimuli\ping.png,midLeft,lowB,downLeft,lowC,downRight,upLeft,upRight,1,m,0,4,4,6,,,,,,,0.5,0.6,practice,m,1,1.0216776999877766,10.14,0,-10.14,0,-7.16,-7.16,7.16,-7.16,-7.16,7.16,7.16,7.16,2,222,,,11,SL,1,F,23,R,2025-05-07_10h15.43.338,RewSL_SL_EEG,
ping,lowB,downLeft,UP,red,l,lowA,Stimuli\red_bar1.png,Stimuli\red_bar1.png,Stimuli\ping.png,midRight,high,midLeft,lowC,downRight,upLeft,upRight,1,z,0,5,5,8,,,,,,,0.6,0.7,practice,None,0,,-7.16,-7.16,10.14,0,-10.14,0,7.16,-7.16,-7.16,7.16,7.16,7.16,2,132,,,11,SL,1,F,23,R,2025-05-07_10h15.43.338,RewSL_SL_EEG,
ping,lowB,downLeft,DOWN,red,l,lowA,Stimuli\red_bar1.png,Stimuli\red_bar1.png,Stimuli\ping.png,midRight,high,midLeft,lowC,downRight,upLeft,upRight,1,m,0,6,6,10,,,,,,,0.6,0.6,practice,z,0,1.1730888000456616,-7.16,-7.16,10.14,0,-10.14,0,7.16,-7.16,-7.16,7.16,7.16,7.16,2,232,,,11,SL,1,F,23,R,2025-05-07_10h15.43.338,RewSL_SL_EEG,
ping,lowB,downLeft,UP,green,l,lowA,Stimuli\green_bar1.png,Stimuli\green_bar1.png,Stimuli\ping.png,midRight,high,midLeft,lowC,downRight,upLeft,upRight,1,z,0,7,7,9,,,,,,,0.5,0.8,practice,None,0,,-7.16,-7.16,10.14,0,-10.14,0,7.16,-7.16,-7.16,7.16,7.16,7.16,2,132,,,11,SL,1,F,23,R,2025-05-07_10h15.43.338,RewSL_SL_EEG,
ping,high,midLeft,UP,green,r,lowA,Stimuli\green_bar1.png,Stimuli\green_bar1.png,Stimuli\ping.png,midRight,lowB,downLeft,lowC,downRight,upLeft,upRight,1,z,0,8,8,1,,,,,,,0.6,0.6,practice,m,0,1.0455992000643164,-10.14,0,10.14,0,-7.16,-7.16,7.16,-7.16,-7.16,7.16,7.16,7.16,2,112,,,11,SL,1,F,23,R,2025-05-07_10h15.43.338,RewSL_SL_EEG,
ping,high,midLeft,DOWN,green,r,lowA,Stimuli\green_bar1.png,Stimuli\green_bar1.png,Stimuli\ping.png,midRight,lowB,downLeft,lowC,downRight,upLeft,upRight,1,m,0,9,9,3,,,,,,,0.4,0.7,practice,m,1,1.0615936999674886,-10.14,0,10.14,0,-7.16,-7.16,7.16,-7.16,-7.16,7.16,7.16,7.16,2,212,,,11,SL,1,F,23,R,2025-05-07_10h15.43.338,RewSL_SL_EEG,
ping,lowB,downLeft,DOWN,green,l,lowA,Stimuli\green_bar1.png,Stimuli\green_bar1.png,Stimuli\ping.png,midRight,high,midLeft,lowC,downRight,upLeft,upRight,1,m,0,10,10,11,,,,,,,0.5,0.8,practice,None,0,,-7.16,-7.16,10.14,0,-10.14,0,7.16,-7.16,-7.16,7.16,7.16,7.16,2,232,,,11,SL,1,F,23,R,2025-05-07_10h15.43.338,RewSL_SL_EEG,
ping,lowC,downRight,DOWN,red,l,lowA,Stimuli\red_bar1.png,Stimuli\red_bar1.png,Stimuli\ping.png,midRight,lowB,downLeft,high,midLeft,upLeft,upRight,1,m,0,11,11,14,,,,,,,0.6,0.7,practice,None,0,,7.16,-7.16,10.14,0,-7.16,-7.16,-10.14,0,-7.16,7.16,7.16,7.16,2,242,,,11,SL,1,F,23,R,2025-05-07_10h15.43.338,RewSL_SL_EEG,
ping,lowC,downRight,UP,green,l,lowA,Stimuli\green_bar1.png,Stimuli\green_bar1.png,Stimuli\ping.png,midRight,lowB,downLeft,high,midLeft,upLeft,upRight,1,z,0,12,12,13,,,,,,,0.5,0.6,practice,None,0,,7.16,-7.16,10.14,0,-7.16,-7.16,-10.14,0,-7.16,7.16,7.16,7.16,2,142,,,11,SL,1,F,23,R,2025-05-07_10h15.43.338,RewSL_SL_EEG,
ping,lowA,midRight,UP,red,l,high,Stimuli\red_bar1.png,Stimuli\red_bar1.png,Stimuli\ping.png,midLeft,lowB,downLeft,lowC,downRight,upLeft,upRight,1,z,0,13,13,4,,,,,,,0.4,0.8,practice,None,0,,10.14,0,-10.14,0,-7.16,-7.16,7.16,-7.16,-7.16,7.16,7.16,7.16,2,122,,,11,SL,1,F,23,R,2025-05-07_10h15.43.338,RewSL_SL_EEG,
ping,high,midLeft,DOWN,red,r,lowA,Stimuli\red_bar1.png,Stimuli\red_bar1.png,Stimuli\ping.png,midRight,lowB,downLeft,lowC,downRight,upLeft,upRight,1,m,0,14,14,2,,,,,,,0.4,0.7,practice,m,1,1.2043042000150308,-10.14,0,10.14,0,-7.16,-7.16,7.16,-7.16,-7.16,7.16,7.16,7.16,2,212,,,11,SL,1,F,23,R,2025-05-07_10h15.43.338,RewSL_SL_EEG,
ping,lowC,downRight,DOWN,green,l,lowA,Stimuli\green_bar1.png,Stimuli\green_bar1.png,Stimuli\ping.png,midRight,lowB,downLeft,high,midLeft,upLeft,upRight,1,m,0,15,15,15,,,,,,,0.5,0.8,practice,None,0,,7.16,-7.16,10.14,0,-7.16,-7.16,-10.14,0,-7.16,7.16,7.16,7.16,2,242,,,11,SL,1,F,23,R,2025-05-07_10h15.43.338,RewSL_SL_EEG,
ping,lowA,downRight,UP,green,r,high,Stimuli\green_bar1.png,Stimuli\green_bar1.png,Stimuli\ping.png,downLeft,lowB,midLeft,lowC,midRight,upLeft,upRight,3,z,,,,,0,0,0,53,,,0.5,0.6,exp,m,0,0.9971113000065088,7.16,-7.16,-7.16,-7.16,-10.14,0,10.14,0,-7.16,7.16,7.16,7.16,6,146,0,1,11,SL,1,F,23,R,2025-05-07_10h15.43.338,RewSL_SL_EEG,
ping,lowC,midRight,DOWN,green,r,lowA,Stimuli\green_bar1.png,Stimuli\green_bar1.png,Stimuli\ping.png,downRight,lowB,midLeft,high,downLeft,upLeft,upRight,3,m,,,,,0,1,1,87,,,0.5,0.7,exp,m,1,0.8763779000146315,10.14,0,7.16,-7.16,-10.14,0,-7.16,-7.16,-7.16,7.16,7.16,7.16,6,226,1,2,11,SL,1,F,23,R,2025-05-07_10h15.43.338,RewSL_SL_EEG,
ping,lowC,midRight,UP,green,l,lowA,Stimuli\green_bar1.png,Stimuli\green_bar1.png,Stimuli\ping.png,downRight,lowB,midLeft,high,downLeft,upLeft,upRight,3,z,,,,,0,2,2,97,,,0.6,0.7,exp,None,0,,10.14,0,7.16,-7.16,-10.14,0,-7.16,-7.16,-7.16,7.16,7.16,7.16,6,126,2,3,11,SL,1,F,23,R,2025-05-07_10h15.43.338,RewSL_SL_EEG,
ping,high,downLeft,DOWN,red,r,lowA,Stimuli\red_bar1.png,Stimuli\red_bar1.png,Stimuli\ping.png,downRight,lowB,midLeft,lowC,midRight,upLeft,upRight,3,m,,,,,0,3,3,46,,,0.5,0.6,exp,m,1,0.6613349000690505,-7.16,-7.16,7.16,-7.16,-10.14,0,10.14,0,-7.16,7.16,7.16,7.16,6,236,3,4,11,SL,1,F,23,R,2025-05-07_10h15.43.338,RewSL_SL_EEG,
ping,lowA,downRight,DOWN,green,r,high,Stimuli\green_bar1.png,Stimuli\green_bar1.png,Stimuli\ping.png,downLeft,lowB,midLeft,lowC,midRight,upLeft,upRight,3,m,,,,,0,4,4,63,,,0.6,0.7,exp,z,0,0.9534435000969097,7.16,-7.16,-7.16,-7.16,-10.14,0,10.14,0,-7.16,7.16,7.16,7.16,6,246,4,5,11,SL,1,F,23,R,2025-05-07_10h15.43.338,RewSL_SL_EEG,
ping,high,downLeft,DOWN,red,l,lowA,Stimuli\red_bar1.png,Stimuli\red_bar1.png,Stimuli\ping.png,downRight,lowB,midLeft,lowC,midRight,upLeft,upRight,3,m,,,,,0,5,5,50,,,0.5,0.8,exp,m,1,1.1376240000827238,-7.16,-7.16,7.16,-7.16,-10.14,0,10.14,0,-7.16,7.16,7.16,7.16,6,236,5,6,11,SL,1,F,23,R,2025-05-07_10h15.43.338,RewSL_SL_EEG,
ping,lowC,midRight,UP,red,r,lowA,Stimuli\red_bar1.png,Stimuli\red_bar1.png,Stimuli\ping.png,downRight,lowB,midLeft,high,downLeft,upLeft,upRight,3,z,,,,,0,6,6,92,,,0.5,0.6,exp,m,0,0.979994900058955,10.14,0,7.16,-7.16,-10.14,0,-7.16,-7.16,-7.16,7.16,7.16,7.16,6,126,6,7,11,SL,1,F,23,R,2025-05-07_10h15.43.338,RewSL_SL_EEG,
ping,high,downLeft,DOWN,green,l,lowA,Stimuli\green_bar1.png,Stimuli\green_bar1.png,Stimuli\ping.png,downRight,lowB,midLeft,lowC,midRight,upLeft,upRight,3,m,,,,,0,7,7,43,,,0.5,0.8,exp,z,0,0.9383117998950183,-7.16,-7.16,7.16,-7.16,-10.14,0,10.14,0,-7.16,7.16,7.16,7.16,6,236,7,8,11,SL,1,F,23,R,2025-05-07_10h15.43.338,RewSL_SL_EEG,
ping,high,downLeft,UP,red,l,lowA,Stimuli\red_bar1.png,Stimuli\red_bar1.png,Stimuli\ping.png,downRight,lowB,midLeft,lowC,midRight,upLeft,upRight,3,z,,,,,0,8,8,32,,,0.5,0.7,exp,z,1,0.913398899952881,-7.16,-7.16,7.16,-7.16,-10.14,0,10.14,0,-7.16,7.16,7.16,7.16,6,136,8,9,11,SL,1,F,23,R,2025-05-07_10h15.43.338,RewSL_SL_EEG,
ping,lowC,midRight,DOWN,red,r,lowA,Stimuli\red_bar1.png,Stimuli\red_bar1.png,Stimuli\ping.png,downRight,lowB,midLeft,high,downLeft,upLeft,upRight,3,m,,,,,0,9,9,86,,,0.6,0.8,exp,None,0,,10.14,0,7.16,-7.16,-10.14,0,-7.16,-7.16,-7.16,7.16,7.16,7.16,6,226,9,10,11,SL,1,F,23,R,2025-05-07_10h15.43.338,RewSL_SL_EEG,
ping,lowA,downRight,UP,red,r,high,Stimuli\red_bar1.png,Stimuli\red_bar1.png,Stimuli\ping.png,downLeft,lowB,midLeft,lowC,midRight,upLeft,upRight,3,z,,,,,0,10,10,60,,,0.4,0.7,exp,None,0,,7.16,-7.16,-7.16,-7.16,-10.14,0,10.14,0,-7.16,7.16,7.16,7.16,6,146,10,11,11,SL,1,F,23,R,2025-05-07_10h15.43.338,RewSL_SL_EEG,
ping,lowC,midRight,DOWN,green,r,lowA,Stimuli\green_bar1.png,Stimuli\green_bar1.png,Stimuli\ping.png,downRight,lowB,midLeft,high,downLeft,upLeft,upRight,3,m,,,,,0,11,11,95,,,0.5,0.7,exp,z,0,1.1049275000113994,10.14,0,7.16,-7.16,-10.14,0,-7.16,-7.16,-7.16,7.16,7.16,7.16,6,226,11,12,11,SL,1,F,23,R,2025-05-07_10h15.43.338,RewSL_SL_EEG,
ping,high,downLeft,DOWN,red,r,lowA,Stimuli\red_bar1.png,Stimuli\red_bar1.png,Stimuli\ping.png,downRight,lowB,midLeft,lowC,midRight,upLeft,upRight,3,m,,,,,0,12,12,6,,,0.6,0.6,exp,m,1,0.7794238000642508,-7.16,-7.16,7.16,-7.16,-10.14,0,10.14,0,-7.16,7.16,7.16,7.16,6,236,12,13,11,SL,1,F,23,R,2025-05-07_10h15.43.338,RewSL_SL_EEG,
ping,high,downLeft,UP,green,r,lowA,Stimuli\green_bar1.png,Stimuli\green_bar1.png,Stimuli\ping.png,downRight,lowB,midLeft,lowC,midRight,upLeft,upRight,3,z,,,,,0,13,13,21,,,0.4,0.7,exp,z,1,1.0716989000793546,-7.16,-7.16,7.16,-7.16,-10.14,0,10.14,0,-7.16,7.16,7.16,7.16,6,136,13,14,11,SL,1,F,23,R,2025-05-07_10h15.43.338,RewSL_SL_EEG,
ping,high,downLeft,UP,red,r,lowA,Stimuli\red_bar1.png,Stimuli\red_bar1.png,Stimuli\ping.png,downRight,lowB,midLeft,lowC,midRight,upLeft,upRight,3,z,,,,,0,14,14,36,,,0.6,0.7,exp,z,1,1.0287648000521585,-7.16,-7.16,7.16,-7.16,-10.14,0,10.14,0,-7.16,7.16,7.16,7.16,6,136,14,15,11,SL,1,F,23,R,2025-05-07_10h15.43.338,RewSL_SL_EEG,
ping,high,downLeft,UP,green,r,lowA,Stimuli\green_bar1.png,Stimuli\green_bar1.png,Stimuli\ping.png,downRight,lowB,midLeft,lowC,midRight,upLeft,upRight,3,z,,,,,0,15,15,13,,,0.5,0.7,exp,None,0,,-7.16,-7.16,7.16,-7.16,-10.14,0,10.14,0,-7.16,7.16,7.16,7.16,6,136,15,16,11,SL,1,F,23,R,2025-05-07_10h15.43.338,RewSL_SL_EEG,
ping,high,downLeft,UP,red,r,lowA,Stimuli\red_bar1.png,Stimuli\red_bar1.png,Stimuli\ping.png,downRight,lowB,midLeft,lowC,midRight,upLeft,upRight,3,z,,,,,0,16,16,4,,,0.6,0.6,exp,None,0,,-7.16,-7.16,7.16,-7.16,-10.14,0,10.14,0,-7.16,7.16,7.16,7.16,6,136,16,17,11,SL,1,F,23,R,2025-05-07_10h15.43.338,RewSL_SL_EEG,
ping,lowB,midLeft,UP,red,r,lowA,Stimuli\red_bar1.png,Stimuli\red_bar1.png,Stimuli\ping.png,downRight,high,downLeft,lowC,midRight,upLeft,upRight,3,z,,,,,0,17,17,76,,,0.4,0.7,exp,z,1,1.2455784999765456,-10.14,0,7.16,-7.16,-7.16,-7.16,10.14,0,-7.16,7.16,7.16,7.16,6,116,17,18,11,SL,1,F,23,R,2025-05-07_10h15.43.338,RewSL_SL_EEG,
ping,lowA,downRight,DOWN,red,r,high,Stimuli\red_bar1.png,Stimuli\red_bar1.png,Stimuli\ping.png,downLeft,lowB,midLeft,lowC,midRight,upLeft,upRight,3,m,,,,,0,18,18,62,,,0.5,0.8,exp,None,0,,7.16,-7.16,-7.16,-7.16,-10.14,0,10.14,0,-7.16,7.16,7.16,7.16,6,246,18,19,11,SL,1,F,23,R,2025-05-07_10h15.43.338,RewSL_SL_EEG,
ping,high,downLeft,DOWN,green,l,lowA,Stimuli\green_bar1.png,Stimuli\green_bar1.png,Stimuli\ping.png,downRight,lowB,midLeft,lowC,midRight,upLeft,upRight,3,m,,,,,0,19,19,27,,,0.5,0.6,exp,z,0,0.9956693999702111,-7.16,-7.16,7.16,-7.16,-10.14,0,10.14,0,-7.16,7.16,7.16,7.16,6,236,19,20,11,SL,1,F,23,R,2025-05-07_10h15.43.338,RewSL_SL_EEG,
ping,high,downLeft,UP,red,l,lowA,Stimuli\red_bar1.png,Stimuli\red_bar1.png,Stimuli\ping.png,downRight,lowB,midLeft,lowC,midRight,upLeft,upRight,3,z,,,,,0,20,20,16,,,0.5,0.7,exp,m,0,0.9199671999085695,-7.16,-7.16,7.16,-7.16,-10.14,0,10.14,0,-7.16,7.16,7.16,7.16,6,136,20,21,11,SL,1,F,23,R,2025-05-07_10h15.43.338,RewSL_SL_EEG,
ping,high,downLeft,DOWN,green,l,lowA,Stimuli\green_bar1.png,Stimuli\green_bar1.png,Stimuli\ping.png,downRight,lowB,midLeft,lowC,midRight,upLeft,upRight,3,m,,,,,0,21,21,35,,,0.4,0.6,exp,m,1,1.2287489000009373,-7.16,-7.16,7.16,-7.16,-10.14,0,10.14,0,-7.16,7.16,7.16,7.16,6,236,21,22,11,SL,1,F,23,R,2025-05-07_10h15.43.338,RewSL_SL_EEG,
ping,lowC,midRight,UP,green,l,lowA,Stimuli\green_bar1.png,Stimuli\green_bar1.png,Stimuli\ping.png,downRight,lowB,midLeft,high,downLeft,upLeft,upRight,3,z,,,,,0,22,22,89,,,0.5,0.7,exp,z,1,0.8715271999826655,10.14,0,7.16,-7.16,-10.14,0,-7.16,-7.16,-7.16,7.16,7.16,7.16,6,126,22,23,11,SL,1,F,23,R,2025-05-07_10h15.43.338,RewSL_SL_EEG,
ping,lowB,midLeft,DOWN,red,r,lowA,Stimuli\red_bar1.png,Stimuli\red_bar1.png,Stimuli\ping.png,downRight,high,downLeft,lowC,midRight,upLeft,upRight,3,m,,,,,0,23,23,78,,,0.4,0.6,exp,None,0,,-10.14,0,7.16,-7.16,-7.16,-7.16,10.14,0,-7.16,7.16,7.16,7.16,6,216,23,24,11,SL,1,F,23,R,2025-05-07_10h15.43.338,RewSL_SL_EEG,
ping,lowA,downRight,UP,red,r,high,Stimuli\red_bar1.png,Stimuli\red_bar1.png,Stimuli\ping.png,downLeft,lowB,midLeft,lowC,midRight,upLeft,upRight,3,z,,,,,0,24,24,52,,,0.6,0.6,exp,None,0,,7.16,-7.16,-7.16,-7.16,-10.14,0,10.14,0,-7.16,7.16,7.16,7.16,6,146,24,25,11,SL,1,F,23,R,2025-05-07_10h15.43.338,RewSL_SL_EEG,
ping,lowB,midLeft,UP,red,r,lowA,Stimuli\red_bar1.png,Stimuli\red_bar1.png,Stimuli\ping.png,downRight,high,downLeft,lowC,midRight,upLeft,upRight,3,z,,,,,0,25,25,68,,,0.4,0.6,exp,z,1,0.871119000017643,-10.14,0,7.16,-7.16,-7.16,-7.16,10.14,0,-7.16,7.16,7.16,7.16,6,116,25,26,11,SL,1,F,23,R,2025-05-07_10h15.43.338,RewSL_SL_EEG,
ping,high,downLeft,DOWN,green,r,lowA,Stimuli\green_bar1.png,Stimuli\green_bar1.png,Stimuli\ping.png,downRight,lowB,midLeft,lowC,midRight,upLeft,upRight,3,m,,,,,0,26,26,31,,,0.5,0.6,exp,m,1,1.1272703000577167,-7.16,-7.16,7.16,-7.16,-10.14,0,10.14,0,-7.16,7.16,7.16,7.16,6,236,26,27,11,SL,1,F,23,R,2025-05-07_10h15.43.338,RewSL_SL_EEG,
ping,lowB,midLeft,UP,green,r,lowA,Stimuli\green_bar1.png,Stimuli\green_bar1.png,Stimuli\ping.png,downRight,high,downLeft,lowC,midRight,upLeft,upRight,3,z,,,,,0,27,27,69,,,0.5,0.7,exp,z,1,0.8542250000173226,-10.14,0,7.16,-7.16,-7.16,-7.16,10.14,0,-7.16,7.16,7.16,7.16,6,116,27,28,11,SL,1,F,23,R,2025-05-07_10h15.43.338,RewSL_SL_EEG,
ping,high,downLeft,UP,green,l,lowA,Stimuli\green_bar1.png,Stimuli\green_bar1.png,Stimuli\ping.png,downRight,lowB,midLeft,lowC,midRight,upLeft,upRight,3,z,,,,,0,28,28,41,,,0.4,0.7,exp,z,1,1.0459440000122413,-7.16,-7.16,7.16,-7.16,-10.14,0,10.14,0,-7.16,7.16,7.16,7.16,6,136,28,29,11,SL,1,F,23,R,2025-05-07_10h15.43.338,RewSL_SL_EEG,
ping,lowB,midLeft,UP,green,r,lowA,Stimuli\green_bar1.png,Stimuli\green_bar1.png,Stimuli\ping.png,downRight,high,downLeft,lowC,midRight,upLeft,upRight,3,z,,,,,0,29,29,77,,,0.5,0.7,exp,z,1,0.7048601999413222,-10.14,0,7.16,-7.16,-7.16,-7.16,10.14,0,-7.16,7.16,7.16,7.16,6,116,29,30,11,SL,1,F,23,R,2025-05-07_10h15.43.338,RewSL_SL_EEG,
ping,lowA,downRight,DOWN,green,l,high,Stimuli\green_bar1.png,Stimuli\green_bar1.png,Stimuli\ping.png,downLeft,lowB,midLeft,lowC,midRight,upLeft,upRight,3,m,,,,,0,30,30,67,,,0.4,0.7,exp,z,0,1.097358200000599,7.16,-7.16,-7.16,-7.16,-10.14,0,10.14,0,-7.16,7.16,7.16,7.16,6,246,30,31,11,SL,1,F,23,R,2025-05-07_10h15.43.338,RewSL_SL_EEG,
ping,high,downLeft,UP,green,r,lowA,Stimuli\green_bar1.png,Stimuli\green_bar1.png,Stimuli\ping.png,downRight,lowB,midLeft,lowC,midRight,upLeft,upRight,3,z,,,,,0,31,31,5,,,0.6,0.7,exp,m,0,0.9553024000488222,-7.16,-7.16,7.16,-7.16,-10.14,0,10.14,0,-7.16,7.16,7.16,7.16,6,136,31,32,11,SL,1,F,23,R,2025-05-07_10h15.43.338,RewSL_SL_EEG,
ping,lowB,midLeft,UP,red,l,lowA,Stimuli\red_bar1.png,Stimuli\red_bar1.png,Stimuli\ping.png,downRight,high,downLeft,lowC,midRight,upLeft,upRight,3,z,,,,,0,32,32,72,,,0.5,0.7,exp,z,1,0.8369333000155166,-10.14,0,7.16,-7.16,-7.16,-7.16,10.14,0,-7.16,7.16,7.16,7.16,6,116,32,33,11,SL,1,F,23,R,2025-05-07_10h15.43.338,RewSL_SL_EEG,
ping,high,downLeft,DOWN,red,l,lowA,Stimuli\red_bar1.png,Stimuli\red_bar1.png,Stimuli\ping.png,downRight,lowB,midLeft,lowC,midRight,upLeft,upRight,3,m,,,,,0,33,33,10,,,0.5,0.6,exp,None,0,,-7.16,-7.16,7.16,-7.16,-10.14,0,10.14,0,-7.16,7.16,7.16,7.16,6,236,33,34,11,SL,1,F,23,R,2025-05-07_10h15.43.338,RewSL_SL_EEG,
ping,high,downLeft,DOWN,green,l,lowA,Stimuli\green_bar1.png,Stimuli\green_bar1.png,Stimuli\ping.png,downRight,lowB,midLeft,lowC,midRight,upLeft,upRight,3,m,,,,,0,34,34,51,,,0.5,0.7,exp,None,0,,-7.16,-7.16,7.16,-7.16,-10.14,0,10.14,0,-7.16,7.16,7.16,7.16,6,236,34,35,11,SL,1,F,23,R,2025-05-07_10h15.43.338,RewSL_SL_EEG,
ping,lowA,downRight,DOWN,green,l,high,Stimuli\green_bar1.png,Stimuli\green_bar1.png,Stimuli\ping.png,downLeft,lowB,midLeft,lowC,midRight,upLeft,upRight,3,m,,,,,0,35,35,59,,,0.5,0.8,exp,m,1,1.180706400074996,7.16,-7.16,-7.16,-7.16,-10.14,0,10.14,0,-7.16,7.16,7.16,7.16,6,246,35,36,11,SL,1,F,23,R,2025-05-07_10h15.43.338,RewSL_SL_EEG,
ping,lowC,midRight,UP,green,r,lowA,Stimuli\green_bar1.png,Stimuli\green_bar1.png,Stimuli\ping.png,downRight,lowB,midLeft,high,downLeft,upLeft,upRight,3,z,,,,,0,36,36,93,,,0.5,0.7,exp,z,1,1.0968012999510393,10.14,0,7.16,-7.16,-10.14,0,-7.16,-7.16,-7.16,7.16,7.16,7.16,6,126,36,37,11,SL,1,F,23,R,2025-05-07_10h15.43.338,RewSL_SL_EEG,
ping,high,downLeft,DOWN,red,r,lowA,Stimuli\red_bar1.png,Stimuli\red_bar1.png,Stimuli\ping.png,downRight,lowB,midLeft,lowC,midRight,upLeft,upRight,3,m,,,,,0,37,37,38,,,0.6,0.6,exp,m,1,1.0196728999726474,-7.16,-7.16,7.16,-7.16,-10.14,0,10.14,0,-7.16,7.16,7.16,7.16,6,236,37,38,11,SL,1,F,23,R,2025-05-07_10h15.43.338,RewSL_SL_EEG,
ping,high,downLeft,UP,red,r,lowA,Stimuli\red_bar1.png,Stimuli\red_bar1.png,Stimuli\ping.png,downRight,lowB,midLeft,lowC,midRight,upLeft,upRight,3,z,,,,,0,38,38,28,,,0.4,0.7,exp,None,0,,-7.16,-7.16,7.16,-7.16,-10.14,0,10.14,0,-7.16,7.16,7.16,7.16,6,136,38,39,11,SL,1,F,23,R,2025-05-07_10h15.43.338,RewSL_SL_EEG,
ping,lowB,midLeft,UP,red,l,lowA,Stimuli\red_bar1.png,Stimuli\red_bar1.png,Stimuli\ping.png,downRight,high,downLeft,lowC,midRight,upLeft,upRight,3,z,,,,,0,39,39,80,,,0.5,0.6,exp,None,0,,-10.14,0,7.16,-7.16,-7.16,-7.16,10.14,0,-7.16,7.16,7.16,7.16,6,116,39,40,11,SL,1,F,23,R,2025-05-07_10h15.43.338,RewSL_SL_EEG,
ping,lowA,downRight,DOWN,green,r,high,Stimuli\green_bar1.png,Stimuli\green_bar1.png,Stimuli\ping.png,downLeft,lowB,midLeft,lowC,midRight,upLeft,upRight,3,m,,,,,0,40,40,55,,,0.5,0.6,exp,m,1,0.7283813999965787,7.16,-7.16,-7.16,-7.16,-10.14,0,10.14,0,-7.16,7.16,7.16,7.16,6,246,40,41,11,SL,1,F,23,R,2025-05-07_10h15.43.338,RewSL_SL_EEG,
ping,high,downLeft,UP,green,l,lowA,Stimuli\green_bar1.png,Stimuli\green_bar1.png,Stimuli\ping.png,downRight,lowB,midLeft,lowC,midRight,upLeft,upRight,3,z,,,,,0,41,41,33,,,0.5,0.7,exp,m,0,1.1457509000319988,-7.16,-7.16,7.16,-7.16,-10.14,0,10.14,0,-7.16,7.16,7.16,7.16,6,136,41,42,11,SL,1,F,23,R,2025-05-07_10h15.43.338,RewSL_SL_EEG,
ping,high,downLeft,UP,red,l,lowA,Stimuli\red_bar1.png,Stimuli\red_bar1.png,Stimuli\ping.png,downRight,lowB,midLeft,lowC,midRight,upLeft,upRight,3,z,,,,,0,42,42,40,,,0.4,0.7,exp,z,1,0.7872576999943703,-7.16,-7.16,7.16,-7.16,-10.14,0,10.14,0,-7.16,7.16,7.16,7.16,6,136,42,43,11,SL,1,F,23,R,2025-05-07_10h15.43.338,RewSL_SL_EEG,
ping,high,downLeft,DOWN,red,l,lowA,Stimuli\red_bar1.png,Stimuli\red_bar1.png,Stimuli\ping.png,downRight,lowB,midLeft,lowC,midRight,upLeft,upRight,3,m,,,,,0,43,43,18,,,0.4,0.6,exp,m,1,0.9459755999268964,-7.16,-7.16,7.16,-7.16,-10.14,0,10.14,0,-7.16,7.16,7.16,7.16,6,236,43,44,11,SL,1,F,23,R,2025-05-07_10h15.43.338,RewSL_SL_EEG,
ping,high,downLeft,UP,red,r,lowA,Stimuli\red_bar1.png,Stimuli\red_bar1.png,Stimuli\ping.png,downRight,lowB,midLeft,lowC,midRight,upLeft,upRight,3,z,,,,,0,44,44,20,,,0.6,0.7,exp,z,1,0.9095224000047892,-7.16,-7.16,7.16,-7.16,-10.14,0,10.14,0,-7.16,7.16,7.16,7.16,6,136,44,45,11,SL,1,F,23,R,2025-05-07_10h15.43.338,RewSL_SL_EEG,
ping,lowA,downRight,DOWN,red,l,high,Stimuli\red_bar1.png,Stimuli\red_bar1.png,Stimuli\ping.png,downLeft,lowB,midLeft,lowC,midRight,upLeft,upRight,3,m,,,,,0,45,45,58,,,0.4,0.6,exp,None,0,,7.16,-7.16,-7.16,-7.16,-10.14,0,10.14,0,-7.16,7.16,7.16,7.16,6,246,45,46,11,SL,1,F,23,R,2025-05-07_10h15.43.338,RewSL_SL_EEG,
ping,lowC,midRight,DOWN,green,l,lowA,Stimuli\green_bar1.png,Stimuli\green_bar1.png,Stimuli\ping.png,downRight,lowB,midLeft,high,downLeft,upLeft,upRight,3,m,,,,,0,46,46,99,,,0.6,0.6,exp,z,0,0.9048492000438273,10.14,0,7.16,-7.16,-10.14,0,-7.16,-7.16,-7.16,7.16,7.16,7.16,6,226,46,47,11,SL,1,F,23,R,2025-05-07_10h15.43.338,RewSL_SL_EEG,
ping,high,downLeft,UP,green,l,lowA,Stimuli\green_bar1.png,Stimuli\green_bar1.png,Stimuli\ping.png,downRight,lowB,midLeft,lowC,midRight,upLeft,upRight,3,z,,,,,0,47,47,1,,,0.5,0.6,exp,z,1,0.8208656000206247,-7.16,-7.16,7.16,-7.16,-10.14,0,10.14,0,-7.16,7.16,7.16,7.16,6,136,47,48,11,SL,1,F,23,R,2025-05-07_10h15.43.338,RewSL_SL_EEG,
ping,lowB,midLeft,DOWN,red,l,lowA,Stimuli\red_bar1.png,Stimuli\red_bar1.png,Stimuli\ping.png,downRight,high,downLeft,lowC,midRight,upLeft,upRight,3,m,,,,,0,48,48,74,,,0.5,0.6,exp,m,1,1.0984400000888854,-10.14,0,7.16,-7.16,-7.16,-7.16,10.14,0,-7.16,7.16,7.16,7.16,6,216,48,49,11,SL,1,F,23,R,2025-05-07_10h15.43.338,RewSL_SL_EEG,
ping,lowA,downRight,DOWN,red,l,high,Stimuli\red_bar1.png,Stimuli\red_bar1.png,Stimuli\ping.png,downLeft,lowB,midLeft,lowC,midRight,upLeft,upRight,3,m,,,,,0,49,49,66,,,0.6,0.7,exp,z,0,0.8465978000313044,7.16,-7.16,-7.16,-7.16,-10.14,0,10.14,0,-7.16,7.16,7.16,7.16,6,246,49,50,11,SL,1,F,23,R,2025-05-07_10h15.43.338,RewSL_SL_EEG,
ping,high,downLeft,DOWN,red,r,lowA,Stimuli\red_bar1.png,Stimuli\red_bar1.png,Stimuli\ping.png,downRight,lowB,midLeft,lowC,midRight,upLeft,upRight,3,m,,,,,0,50,50,14,,,0.5,0.7,exp,z,0,1.221396999899298,-7.16,-7.16,7.16,-7.16,-10.14,0,10.14,0,-7.16,7.16,7.16,7.16,6,236,50,51,11,SL,1,F,23,R,2025-05-07_10h15.43.338,RewSL_SL_EEG,
ping,lowB,midLeft,DOWN,green,l,lowA,Stimuli\green_bar1.png,Stimuli\green_bar1.png,Stimuli\ping.png,downRight,high,downLeft,lowC,midRight,upLeft,upRight,3,m,,,,,0,51,51,75,,,0.6,0.8,exp,None,0,,-10.14,0,7.16,-7.16,-7.16,-7.16,10.14,0,-7.16,7.16,7.16,7.16,6,216,51,52,11,SL,1,F,23,R,2025-05-07_10h15.43.338,RewSL_SL_EEG,
ping,high,downLeft,DOWN,red,r,lowA,Stimuli\red_bar1.png,Stimuli\red_bar1.png,Stimuli\ping.png,downRight,lowB,midLeft,lowC,midRight,upLeft,upRight,3,m,,,,,0,52,52,30,,,0.5,0.6,exp,m,1,1.0049017000710592,-7.16,-7.16,7.16,-7.16,-10.14,0,10.14,0,-7.16,7.16,7.16,7.16,6,236,52,53,11,SL,1,F,23,R,2025-05-07_10h15.43.338,RewSL_SL_EEG,
ping,high,downLeft,UP,green,r,lowA,Stimuli\green_bar1.png,Stimuli\green_bar1.png,Stimuli\ping.png,downRight,lowB,midLeft,lowC,midRight,upLeft,upRight,3,z,,,,,0,53,53,37,,,0.6,0.7,exp,z,1,0.8130922999698669,-7.16,-7.16,7.16,-7.16,-10.14,0,10.14,0,-7.16,7.16,7.16,7.16,6,136,53,54,11,SL,1,F,23,R,2025-05-07_10h15.43.338,RewSL_SL_EEG,
ping,lowB,midLeft,UP,green,l,lowA,Stimuli\green_bar1.png,Stimuli\green_bar1.png,Stimuli\ping.png,downRight,high,downLeft,lowC,midRight,upLeft,upRight,3,z,,,,,0,54,54,81,,,0.4,0.8,exp,z,1,0.8297658999217674,-10.14,0,7.16,-7.16,-7.16,-7.16,10.14,0,-7.16,7.16,7.16,7.16,6,116,54,55,11,SL,1,F,23,R,2025-05-07_10h15.43.338,RewSL_SL_EEG,
ping,lowA,downRight,UP,green,l,high,Stimuli\green_bar1.png,Stimuli\green_bar1.png,Stimuli\ping.png,downLeft,lowB,midLeft,lowC,midRight,upLeft,upRight,3,z,,,,,0,55,55,65,,,0.5,0.7,exp,z,1,1.0544984000734985,7.16,-7.16,-7.16,-7.16,-10.14,0,10.14,0,-7.16,7.16,7.16,7.16,6,146,55,56,11,SL,1,F,23,R,2025-05-07_10h15.43.338,RewSL_SL_EEG,
ping,high,downLeft,DOWN,green,r,lowA,Stimuli\green_bar1.png,Stimuli\green_bar1.png,Stimuli\ping.png,downRight,lowB,midLeft,lowC,midRight,upLeft,upRight,3,m,,,,,0,56,56,7,,,0.5,0.7,exp,m,1,0.9630914999870583,-7.16,-7.16,7.16,-7.16,-10.14,0,10.14,0,-7.16,7.16,7.16,7.16,6,236,56,57,11,SL,1,F,23,R,2025-05-07_10h15.43.338,RewSL_SL_EEG,
ping,high,downLeft,DOWN,red,l,lowA,Stimuli\red_bar1.png,Stimuli\red_bar1.png,Stimuli\ping.png,downRight,lowB,midLeft,lowC,midRight,upLeft,upRight,3,m,,,,,0,57,57,34,,,0.5,0.8,exp,m,1,0.7785653000464663,-7.16,-7.16,7.16,-7.16,-10.14,0,10.14,0,-7.16,7.16,7.16,7.16,6,236,57,58,11,SL,1,F,23,R,2025-05-07_10h15.43.338,RewSL_SL_EEG,
ping,high,downLeft,UP,red,r,lowA,Stimuli\red_bar1.png,Stimuli\red_bar1.png,Stimuli\ping.png,downRight,lowB,midLeft,lowC,midRight,upLeft,upRight,3,z,,,,,0,58,58,44,,,0.5,0.8,exp,z,1,0.8706131000071764,-7.16,-7.16,7.16,-7.16,-10.14,0,10.14,0,-7.16,7.16,7.16,7.16,6,136,58,59,11,SL,1,F,23,R,2025-05-07_10h15.43.338,RewSL_SL_EEG,
ping,high,downLeft,UP,green,l,lowA,Stimuli\green_bar1.png,Stimuli\green_bar1.png,Stimuli\ping.png,downRight,lowB,midLeft,lowC,midRight,upLeft,upRight,3,z,,,,,0,59,59,17,,,0.5,0.8,exp,z,1,0.8538742000237107,-7.16,-7.16,7.16,-7.16,-10.14,0,10.14,0,-7.16,7.16,7.16,7.16,6,136,59,60,11,SL,1,F,23,R,2025-05-07_10h15.43.338,RewSL_SL_EEG,
ping,lowB,midLeft,DOWN,green,l,lowA,Stimuli\green_bar1.png,Stimuli\green_bar1.png,Stimuli\ping.png,downRight,high,downLeft,lowC,midRight,upLeft,upRight,3,m,,,,,0,60,60,83,,,0.5,0.6,exp,None,0,,-10.14,0,7.16,-7.16,-7.16,-7.16,10.14,0,-7.16,7.16,7.16,7.16,6,216,60,61,11,SL,1,F,23,R,2025-05-07_10h15.43.338,RewSL_SL_EEG,
ping,high,downLeft,UP,red,l,lowA,Stimuli\red_bar1.png,Stimuli\red_bar1.png,Stimuli\ping.png,downRight,lowB,midLeft,lowC,midRight,upLeft,upRight,3,z,,,,,0,61,61,48,,,0.5,0.7,exp,z,1,1.0357345000375062,-7.16,-7.16,7.16,-7.16,-10.14,0,10.14,0,-7.16,7.16,7.16,7.16,6,136,61,62,11,SL,1,F,23,R,2025-05-07_10h15.43.338,RewSL_SL_EEG,
ping,lowA,downRight,DOWN,red,r,high,Stimuli\red_bar1.png,Stimuli\red_bar1.png,Stimuli\ping.png,downLeft,lowB,midLeft,lowC,midRight,upLeft,upRight,3,m,,,,,0,62,62,54,,,0.6,0.6,exp,m,1,1.2621213999809697,7.16,-7.16,-7.16,-7.16,-10.14,0,10.14,0,-7.16,7.16,7.16,7.16,6,246,62,63,11,SL,1,F,23,R,2025-05-07_10h15.43.338,RewSL_SL_EEG,
ping,high,downLeft,UP,red,l,lowA,Stimuli\red_bar1.png,Stimuli\red_bar1.png,Stimuli\ping.png,downRight,lowB,midLeft,lowC,midRight,upLeft,upRight,3,z,,,,,0,63,63,8,,,0.4,0.7,exp,z,1,0.7130798000143841,-7.16,-7.16,7.16,-7.16,-10.14,0,10.14,0,-7.16,7.16,7.16,7.16,6,136,63,64,11,SL,1,F,23,R,2025-05-07_10h15.43.338,RewSL_SL_EEG,
ping,high,downLeft,DOWN,green,l,lowA,Stimuli\green_bar1.png,Stimuli\green_bar1.png,Stimuli\ping.png,downRight,lowB,midLeft,lowC,midRight,upLeft,upRight,3,m,,,,,0,64,64,11,,,0.4,0.7,exp,m,1,0.837102499906905,-7.16,-7.16,7.16,-7.16,-10.14,0,10.14,0,-7.16,7.16,7.16,7.16,6,236,64,65,11,SL,1,F,23,R,2025-05-07_10h15.43.338,RewSL_SL_EEG,
ping,lowA,downRight,UP,green,r,high,Stimuli\green_bar1.png,Stimuli\green_bar1.png,Stimuli\ping.png,downLeft,lowB,midLeft,lowC,midRight,upLeft,upRight,3,z,,,,,0,65,65,61,,,0.4,0.7,exp,z,1,1.137401400017552,7.16,-7.16,-7.16,-7.16,-10.14,0,10.14,0,-7.16,7.16,7.16,7.16,6,146,65,66,11,SL,1,F,23,R,2025-05-07_10h15.43.338,RewSL_SL_EEG,
ping,high,downLeft,UP,green,l,lowA,Stimuli\green_bar1.png,Stimuli\green_bar1.png,Stimuli\ping.png,downRight,lowB,midLeft,lowC,midRight,upLeft,upRight,3,z,,,,,0,66,66,9,,,0.6,0.7,exp,z,1,0.663552200072445,-7.16,-7.16,7.16,-7.16,-10.14,0,10.14,0,-7.16,7.16,7.16,7.16,6,136,66,67,11,SL,1,F,23,R,2025-05-07_10h15.43.338,RewSL_SL_EEG,
ping,high,downLeft,UP,green,l,lowA,Stimuli\green_bar1.png,Stimuli\green_bar1.png,Stimuli\ping.png,downRight,lowB,midLeft,lowC,midRight,upLeft,upRight,3,z,,,,,0,67,67,49,,,0.5,0.6,exp,z,1,0.6053232999984175,-7.16,-7.16,7.16,-7.16,-10.14,0,10.14,0,-7.16,7.16,7.16,7.16,6,136,67,68,11,SL,1,F,23,R,2025-05-07_10h15.43.338,RewSL_SL_EEG,
ping,lowC,midRight,UP,red,l,lowA,Stimuli\red_bar1.png,Stimuli\red_bar1.png,Stimuli\ping.png,downRight,lowB,midLeft,high,downLeft,upLeft,upRight,3,z,,,,,0,68,68,88,,,0.4,0.7,exp,m,0,1.0639959000982344,10.14,0,7.16,-7.16,-10.14,0,-7.16,-7.16,-7.16,7.16,7.16,7.16,6,126,68,69,11,SL,1,F,23,R,2025-05-07_10h15.43.338,RewSL_SL_EEG,
ping,high,downLeft,UP,green,r,lowA,Stimuli\green_bar1.png,Stimuli\green_bar1.png,Stimuli\ping.png,downRight,lowB,midLeft,lowC,midRight,upLeft,upRight,3,z,,,,,0,69,69,29,,,0.4,0.7,exp,z,1,0.68847289995756,-7.16,-7.16,7.16,-7.16,-10.14,0,10.14,0,-7.16,7.16,7.16,7.16,6,136,69,70,11,SL,1,F,23,R,2025-05-07_10h15.43.338,RewSL_SL_EEG,
ping,lowC,midRight,DOWN,red,l,lowA,Stimuli\red_bar1.png,Stimuli\red_bar1.png,Stimuli\ping.png,downRight,lowB,midLeft,high,downLeft,upLeft,upRight,3,m,,,,,0,70,70,90,,,0.5,0.7,exp,m,1,1.06252419995144,10.14,0,7.16,-7.16,-10.14,0,-7.16,-7.16,-7.16,7.16,7.16,7.16,6,226,70,71,11,SL,1,F,23,R,2025-05-07_10h15.43.338,RewSL_SL_EEG,
ping,lowC,midRight,UP,red,l,lowA,Stimuli\red_bar1.png,Stimuli\red_bar1.png,Stimuli\ping.png,downRight,lowB,midLeft,high,downLeft,upLeft,upRight,3,z,,,,,0,71,71,96,,,0.5,0.7,exp,z,1,0.7780052999733016,10.14,0,7.16,-7.16,-10.14,0,-7.16,-7.16,-7.16,7.16,7.16,7.16,6,126,71,72,11,SL,1,F,23,R,2025-05-07_10h15.43.338,RewSL_SL_EEG,
ping,lowC,midRight,UP,green,r,lowA,Stimuli\green_bar1.png,Stimuli\green_bar1.png,Stimuli\ping.png,downRight,lowB,midLeft,high,downLeft,upLeft,upRight,3,z,,,,,0,72,72,85,,,0.6,0.7,exp,m,0,1.1369198999600485,10.14,0,7.16,-7.16,-10.14,0,-7.16,-7.16,-7.16,7.16,7.16,7.16,6,126,72,73,11,SL,1,F,23,R,2025-05-07_10h15.43.338,RewSL_SL_EEG,
ping,lowC,midRight,DOWN,red,l,lowA,Stimuli\red_bar1.png,Stimuli\red_bar1.png,Stimuli\ping.png,downRight,lowB,midLeft,high,downLeft,upLeft,upRight,3,m,,,,,0,73,73,98,,,0.4,0.8,exp,z,0,1.0884799000341445,10.14,0,7.16,-7.16,-10.14,0,-7.16,-7.16,-7.16,7.16,7.16,7.16,6,226,73,74,11,SL,1,F,23,R,2025-05-07_10h15.43.338,RewSL_SL_EEG,
ping,lowC,midRight,DOWN,red,r,lowA,Stimuli\red_bar1.png,Stimuli\red_bar1.png,Stimuli\ping.png,downRight,lowB,midLeft,high,downLeft,upLeft,upRight,3,m,,,,,0,74,74,94,,,0.5,0.6,exp,m,1,1.0464710999513045,10.14,0,7.16,-7.16,-10.14,0,-7.16,-7.16,-7.16,7.16,7.16,7.16,6,226,74,75,11,SL,1,F,23,R,2025-05-07_10h15.43.338,RewSL_SL_EEG,
ping,high,downLeft,DOWN,green,r,lowA,Stimuli\green_bar1.png,Stimuli\green_bar1.png,Stimuli\ping.png,downRight,lowB,midLeft,lowC,midRight,upLeft,upRight,3,m,,,,,0,75,75,47,,,0.6,0.8,exp,None,0,,-7.16,-7.16,7.16,-7.16,-10.14,0,10.14,0,-7.16,7.16,7.16,7.16,6,236,75,76,11,SL,1,F,23,R,2025-05-07_10h15.43.338,RewSL_SL_EEG,
ping,lowB,midLeft,DOWN,red,r,lowA,Stimuli\red_bar1.png,Stimuli\red_bar1.png,Stimuli\ping.png,downRight,high,downLeft,lowC,midRight,upLeft,upRight,3,m,,,,,0,76,76,70,,,0.6,0.7,exp,z,0,1.0954925999976695,-10.14,0,7.16,-7.16,-7.16,-7.16,10.14,0,-7.16,7.16,7.16,7.16,6,216,76,77,11,SL,1,F,23,R,2025-05-07_10h15.43.338,RewSL_SL_EEG,
ping,lowA,downRight,UP,green,l,high,Stimuli\green_bar1.png,Stimuli\green_bar1.png,Stimuli\ping.png,downLeft,lowB,midLeft,lowC,midRight,upLeft,upRight,3,z,,,,,0,77,77,57,,,0.4,0.6,exp,z,1,1.137657199986279,7.16,-7.16,-7.16,-7.16,-10.14,0,10.14,0,-7.16,7.16,7.16,7.16,6,146,77,78,11,SL,1,F,23,R,2025-05-07_10h15.43.338,RewSL_SL_EEG,
ping,lowB,midLeft,DOWN,green,r,lowA,Stimuli\green_bar1.png,Stimuli\green_bar1.png,Stimuli\ping.png,downRight,high,downLeft,lowC,midRight,upLeft,upRight,3,m,,,,,0,78,78,79,,,0.6,0.7,exp,m,1,0.9045473000733182,-10.14,0,7.16,-7.16,-7.16,-7.16,10.14,0,-7.16,7.16,7.16,7.16,6,216,78,79,11,SL,1,F,23,R,2025-05-07_10h15.43.338,RewSL_SL_EEG,
ping,high,downLeft,DOWN,red,l,lowA,Stimuli\red_bar1.png,Stimuli\red_bar1.png,Stimuli\ping.png,downRight,lowB,midLeft,lowC,midRight,upLeft,upRight,3,m,,,,,0,79,79,26,,,0.4,0.6,exp,z,0,1.0380902000470087,-7.16,-7.16,7.16,-7.16,-10.14,0,10.14,0,-7.16,7.16,7.16,7.16,6,236,79,80,11,SL,1,F,23,R,2025-05-07_10h15.43.338,RewSL_SL_EEG,
ping,lowC,midRight,DOWN,green,l,lowA,Stimuli\green_bar1.png,Stimuli\green_bar1.png,Stimuli\ping.png,downRight,lowB,midLeft,high,downLeft,upLeft,upRight,3,m,,,,,0,80,80,91,,,0.6,0.8,exp,m,1,1.2291238000616431,10.14,0,7.16,-7.16,-10.14,0,-7.16,-7.16,-7.16,7.16,7.16,7.16,6,226,80,81,11,SL,1,F,23,R,2025-05-07_10h15.43.338,RewSL_SL_EEG,
ping,high,downLeft,UP,red,l,lowA,Stimuli\red_bar1.png,Stimuli\red_bar1.png,Stimuli\ping.png,downRight,lowB,midLeft,lowC,midRight,upLeft,upRight,3,z,,,,,0,81,81,24,,,0.5,0.7,exp,None,0,,-7.16,-7.16,7.16,-7.16,-10.14,0,10.14,0,-7.16,7.16,7.16,7.16,6,136,81,82,11,SL,1,F,23,R,2025-05-07_10h15.43.338,RewSL_SL_EEG,
ping,high,downLeft,UP,green,r,lowA,Stimuli\green_bar1.png,Stimuli\green_bar1.png,Stimuli\ping.png,downRight,lowB,midLeft,lowC,midRight,upLeft,upRight,3,z,,,,,0,82,82,45,,,0.5,0.7,exp,z,1,1.2005510999588296,-7.16,-7.16,7.16,-7.16,-10.14,0,10.14,0,-7.16,7.16,7.16,7.16,6,136,82,83,11,SL,1,F,23,R,2025-05-07_10h15.43.338,RewSL_SL_EEG,
ping,high,downLeft,DOWN,green,l,lowA,Stimuli\green_bar1.png,Stimuli\green_bar1.png,Stimuli\ping.png,downRight,lowB,midLeft,lowC,midRight,upLeft,upRight,3,m,,,,,0,83,83,19,,,0.6,0.8,exp,None,0,,-7.16,-7.16,7.16,-7.16,-10.14,0,10.14,0,-7.16,7.16,7.16,7.16,6,236,83,84,11,SL,1,F,23,R,2025-05-07_10h15.43.338,RewSL_SL_EEG,
ping,high,downLeft,UP,green,l,lowA,Stimuli\green_bar1.png,Stimuli\green_bar1.png,Stimuli\ping.png,downRight,lowB,midLeft,lowC,midRight,upLeft,upRight,3,z,,,,,0,84,84,25,,,0.6,0.7,exp,z,1,0.9803835999919102,-7.16,-7.16,7.16,-7.16,-10.14,0,10.14,0,-7.16,7.16,7.16,7.16,6,136,84,85,11,SL,1,F,23,R,2025-05-07_10h15.43.338,RewSL_SL_EEG,
ping,high,downLeft,UP,red,r,lowA,Stimuli\red_bar1.png,Stimuli\red_bar1.png,Stimuli\ping.png,downRight,lowB,midLeft,lowC,midRight,upLeft,upRight,3,z,,,,,0,85,85,12,,,0.5,0.6,exp,None,0,,-7.16,-7.16,7.16,-7.16,-10.14,0,10.14,0,-7.16,7.16,7.16,7.16,6,136,85,86,11,SL,1,F,23,R,2025-05-07_10h15.43.338,RewSL_SL_EEG,
ping,high,downLeft,DOWN,green,l,lowA,Stimuli\green_bar1.png,Stimuli\green_bar1.png,Stimuli\ping.png,downRight,lowB,midLeft,lowC,midRight,upLeft,upRight,3,m,,,,,0,86,86,3,,,0.6,0.7,exp,z,0,0.8298622000729665,-7.16,-7.16,7.16,-7.16,-10.14,0,10.14,0,-7.16,7.16,7.16,7.16,6,236,86,87,11,SL,1,F,23,R,2025-05-07_10h15.43.338,RewSL_SL_EEG,
ping,high,downLeft,UP,red,l,lowA,Stimuli\red_bar1.png,Stimuli\red_bar1.png,Stimuli\ping.png,downRight,lowB,midLeft,lowC,midRight,upLeft,upRight,3,z,,,,,0,87,87,0,,,0.5,0.8,exp,z,1,0.7878791999537498,-7.16,-7.16,7.16,-7.16,-10.14,0,10.14,0,-7.16,7.16,7.16,7.16,6,136,87,88,11,SL,1,F,23,R,2025-05-07_10h15.43.338,RewSL_SL_EEG,
ping,high,downLeft,DOWN,green,r,lowA,Stimuli\green_bar1.png,Stimuli\green_bar1.png,Stimuli\ping.png,downRight,lowB,midLeft,lowC,midRight,upLeft,upRight,3,m,,,,,0,88,88,15,,,0.6,0.6,exp,m,1,0.7794815999222919,-7.16,-7.16,7.16,-7.16,-10.14,0,10.14,0,-7.16,7.16,7.16,7.16,6,236,88,89,11,SL,1,F,23,R,2025-05-07_10h15.43.338,RewSL_SL_EEG,
ping,lowB,midLeft,DOWN,green,r,lowA,Stimuli\green_bar1.png,Stimuli\green_bar1.png,Stimuli\ping.png,downRight,high,downLeft,lowC,midRight,upLeft,upRight,3,m,,,,,0,89,89,71,,,0.5,0.7,exp,m,1,1.105277800001204,-10.14,0,7.16,-7.16,-7.16,-7.16,10.14,0,-7.16,7.16,7.16,7.16,6,216,89,90,11,SL,1,F,23,R,2025-05-07_10h15.43.338,RewSL_SL_EEG,
ping,lowB,midLeft,UP,green,l,lowA,Stimuli\green_bar1.png,Stimuli\green_bar1.png,Stimuli\ping.png,downRight,high,downLeft,lowC,midRight,upLeft,upRight,3,z,,,,,0,90,90,73,,,0.5,0.8,exp,z,1,0.6713640000671148,-10.14,0,7.16,-7.16,-7.16,-7.16,10.14,0,-7.16,7.16,7.16,7.16,6,116,90,91,11,SL,1,F,23,R,2025-05-07_10h15.43.338,RewSL_SL_EEG,
ping,lowA,downRight,UP,red,l,high,Stimuli\red_bar1.png,Stimuli\red_bar1.png,Stimuli\ping.png,downLeft,lowB,midLeft,lowC,midRight,upLeft,upRight,3,z,,,,,0,91,91,64,,,0.5,0.7,exp,m,0,1.1123561999993399,7.16,-7.16,-7.16,-7.16,-10.14,0,10.14,0,-7.16,7.16,7.16,7.16,6,146,91,92,11,SL,1,F,23,R,2025-05-07_10h15.43.338,RewSL_SL_EEG,
ping,lowC,midRight,UP,red,r,lowA,Stimuli\red_bar1.png,Stimuli\red_bar1.png,Stimuli\ping.png,downRight,lowB,midLeft,high,downLeft,upLeft,upRight,3,z,,,,,0,92,92,84,,,0.5,0.7,exp,z,1,1.2875320999883115,10.14,0,7.16,-7.16,-10.14,0,-7.16,-7.16,-7.16,7.16,7.16,7.16,6,126,92,93,11,SL,1,F,23,R,2025-05-07_10h15.43.338,RewSL_SL_EEG,
ping,high,downLeft,DOWN,green,r,lowA,Stimuli\green_bar1.png,Stimuli\green_bar1.png,Stimuli\ping.png,downRight,lowB,midLeft,lowC,midRight,upLeft,upRight,3,m,,,,,0,93,93,39,,,0.5,0.8,exp,m,1,1.0042402000399306,-7.16,-7.16,7.16,-7.16,-10.14,0,10.14,0,-7.16,7.16,7.16,7.16,6,236,93,94,11,SL,1,F,23,R,2025-05-07_10h15.43.338,RewSL_SL_EEG,
ping,lowA,downRight,UP,red,l,high,Stimuli\red_bar1.png,Stimuli\red_bar1.png,Stimuli\ping.png,downLeft,lowB,midLeft,lowC,midRight,upLeft,upRight,3,z,,,,,0,94,94,56,,,0.5,0.6,exp,z,1,1.1213225000537932,7.16,-7.16,-7.16,-7.16,-10.14,0,10.14,0,-7.16,7.16,7.16,7.16,6,146,94,95,11,SL,1,F,23,R,2025-05-07_10h15.43.338,RewSL_SL_EEG,
ping,lowB,midLeft,DOWN,red,l,lowA,Stimuli\red_bar1.png,Stimuli\red_bar1.png,Stimuli\ping.png,downRight,high,downLeft,lowC,midRight,upLeft,upRight,3,m,,,,,0,95,95,82,,,0.4,0.6,exp,m,1,0.9468391999835148,-10.14,0,7.16,-7.16,-7.16,-7.16,10.14,0,-7.16,7.16,7.16,7.16,6,216,95,96,11,SL,1,F,23,R,2025-05-07_10h15.43.338,RewSL_SL_EEG,
ping,high,downLeft,DOWN,red,l,lowA,Stimuli\red_bar1.png,Stimuli\red_bar1.png,Stimuli\ping.png,downRight,lowB,midLeft,lowC,midRight,upLeft,upRight,3,m,,,,,0,96,96,42,,,0.6,0.7,exp,z,0,1.0129917000886053,-7.16,-7.16,7.16,-7.16,-10.14,0,10.14,0,-7.16,7.16,7.16,7.16,6,236,96,97,11,SL,1,F,23,R,2025-05-07_10h15.43.338,RewSL_SL_EEG,
ping,high,downLeft,DOWN,red,l,lowA,Stimuli\red_bar1.png,Stimuli\red_bar1.png,Stimuli\ping.png,downRight,lowB,midLeft,lowC,midRight,upLeft,upRight,3,m,,,,,0,97,97,2,,,0.5,0.7,exp,None,0,,-7.16,-7.16,7.16,-7.16,-10.14,0,10.14,0,-7.16,7.16,7.16,7.16,6,236,97,98,11,SL,1,F,23,R,2025-05-07_10h15.43.338,RewSL_SL_EEG,
ping,high,downLeft,DOWN,green,r,lowA,Stimuli\green_bar1.png,Stimuli\green_bar1.png,Stimuli\ping.png,downRight,lowB,midLeft,lowC,midRight,upLeft,upRight,3,m,,,,,0,98,98,23,,,0.4,0.8,exp,m,1,0.9288129000924528,-7.16,-7.16,7.16,-7.16,-10.14,0,10.14,0,-7.16,7.16,7.16,7.16,6,236,98,99,11,SL,1,F,23,R,2025-05-07_10h15.43.338,RewSL_SL_EEG,
ping,high,downLeft,DOWN,red,r,lowA,Stimuli\red_bar1.png,Stimuli\red_bar1.png,Stimuli\ping.png,downRight,lowB,midLeft,lowC,midRight,upLeft,upRight,3,m,,,,,0,99,99,22,,,0.6,0.7,exp,m,1,0.7461118000792339,-7.16,-7.16,7.16,-7.16,-10.14,0,10.14,0,-7.16,7.16,7.16,7.16,6,236,99,100,11,SL,1,F,23,R,2025-05-07_10h15.43.338,RewSL_SL_EEG,
ping,lowB,downRight,UP,red,l,lowA,Stimuli\red_bar1.png,Stimuli\red_bar1.png,Stimuli\ping.png,midLeft,high,midRight,lowC,downLeft,upLeft,upRight,2,z,,,,,0,0,0,80,,,0.5,0.7,exp,m,0,0.853263600030914,7.16,-7.16,-10.14,0,10.14,0,-7.16,-7.16,-7.16,7.16,7.16,7.16,4,144,100,101,11,SL,1,F,23,R,2025-05-07_10h15.43.338,RewSL_SL_EEG,
ping,lowB,downRight,DOWN,green,r,lowA,Stimuli\green_bar1.png,Stimuli\green_bar1.png,Stimuli\ping.png,midLeft,high,midRight,lowC,downLeft,upLeft,upRight,2,m,,,,,0,1,1,79,,,0.5,0.6,exp,m,1,0.9210070000262931,7.16,-7.16,-10.14,0,10.14,0,-7.16,-7.16,-7.16,7.16,7.16,7.16,4,244,101,102,11,SL,1,F,23,R,2025-05-07_10h15.43.338,RewSL_SL_EEG,
ping,high,midRight,UP,green,l,lowA,Stimuli\green_bar1.png,Stimuli\green_bar1.png,Stimuli\ping.png,midLeft,lowB,downRight,lowC,downLeft,upLeft,upRight,2,z,,,,,0,2,2,49,,,0.5,0.7,exp,z,1,0.8131558999884874,10.14,0,-10.14,0,7.16,-7.16,-7.16,-7.16,-7.16,7.16,7.16,7.16,4,124,102,103,11,SL,1,F,23,R,2025-05-07_10h15.43.338,RewSL_SL_EEG,
ping,high,midRight,DOWN,green,r,lowA,Stimuli\green_bar1.png,Stimuli\green_bar1.png,Stimuli\ping.png,midLeft,lowB,downRight,lowC,downLeft,upLeft,upRight,2,m,,,,,0,3,3,23,,,0.5,0.6,exp,m,1,0.6544962000334635,10.14,0,-10.14,0,7.16,-7.16,-7.16,-7.16,-7.16,7.16,7.16,7.16,4,224,103,104,11,SL,1,F,23,R,2025-05-07_10h15.43.338,RewSL_SL_EEG,
ping,lowB,downRight,UP,green,r,lowA,Stimuli\green_bar1.png,Stimuli\green_bar1.png,Stimuli\ping.png,midLeft,high,midRight,lowC,downLeft,upLeft,upRight,2,z,,,,,0,4,4,69,,,0.5,0.7,exp,z,1,1.1135929999873042,7.16,-7.16,-10.14,0,10.14,0,-7.16,-7.16,-7.16,7.16,7.16,7.16,4,144,104,105,11,SL,1,F,23,R,2025-05-07_10h15.43.338,RewSL_SL_EEG,
ping,lowB,downRight,UP,green,l,lowA,Stimuli\green_bar1.png,Stimuli\green_bar1.png,Stimuli\ping.png,midLeft,high,midRight,lowC,downLeft,upLeft,upRight,2,z,,,,,0,5,5,73,,,0.5,0.7,exp,z,1,0.729109900072217,7.16,-7.16,-10.14,0,10.14,0,-7.16,-7.16,-7.16,7.16,7.16,7.16,4,144,105,106,11,SL,1,F,23,R,2025-05-07_10h15.43.338,RewSL_SL_EEG,
ping,high,midRight,UP,green,l,lowA,Stimuli\green_bar1.png,Stimuli\green_bar1.png,Stimuli\ping.png,midLeft,lowB,downRight,lowC,downLeft,upLeft,upRight,2,z,,,,,0,6,6,25,,,0.5,0.6,exp,m,0,0.8057140000164509,10.14,0,-10.14,0,7.16,-7.16,-7.16,-7.16,-7.16,7.16,7.16,7.16,4,124,106,107,11,SL,1,F,23,R,2025-05-07_10h15.43.338,RewSL_SL_EEG,
ping,lowC,downLeft,UP,green,l,lowA,Stimuli\green_bar1.png,Stimuli\green_bar1.png,Stimuli\ping.png,midLeft,lowB,downRight,high,midRight,upLeft,upRight,2,z,,,,,0,7,7,97,,,0.5,0.8,exp,z,1,0.9957981999032199,-7.16,-7.16,-10.14,0,7.16,-7.16,10.14,0,-7.16,7.16,7.16,7.16,4,134,107,108,11,SL,1,F,23,R,2025-05-07_10h15.43.338,RewSL_SL_EEG,
ping,high,midRight,UP,red,l,lowA,Stimuli\red_bar1.png,Stimuli\red_bar1.png,Stimuli\ping.png,midLeft,lowB,downRight,lowC,downLeft,upLeft,upRight,2,z,,,,,0,8,8,0,,,0.5,0.7,exp,m,0,1.0121226999908686,10.14,0,-10.14,0,7.16,-7.16,-7.16,-7.16,-7.16,7.16,7.16,7.16,4,124,108,109,11,SL,1,F,23,R,2025-05-07_10h15.43.338,RewSL_SL_EEG,
ping,lowA,midLeft,DOWN,red,r,high,Stimuli\red_bar1.png,Stimuli\red_bar1.png,Stimuli\ping.png,midRight,lowB,downRight,lowC,downLeft,upLeft,upRight,2,m,,,,,0,9,9,62,,,0.5,0.8,exp,z,0,1.204550200025551,-10.14,0,10.14,0,7.16,-7.16,-7.16,-7.16,-7.16,7.16,7.16,7.16,4,214,109,110,11,SL,1,F,23,R,2025-05-07_10h15.43.338,RewSL_SL_EEG,
ping,high,midRight,DOWN,red,l,lowA,Stimuli\red_bar1.png,Stimuli\red_bar1.png,Stimuli\ping.png,midLeft,lowB,downRight,lowC,downLeft,upLeft,upRight,2,m,,,,,0,10,10,34,,,0.5,0.6,exp,m,1,0.7544256000546739,10.14,0,-10.14,0,7.16,-7.16,-7.16,-7.16,-7.16,7.16,7.16,7.16,4,224,110,111,11,SL,1,F,23,R,2025-05-07_10h15.43.338,RewSL_SL_EEG,
ping,lowA,midLeft,UP,red,r,high,Stimuli\red_bar1.png,Stimuli\red_bar1.png,Stimuli\ping.png,midRight,lowB,downRight,lowC,downLeft,upLeft,upRight,2,z,,,,,0,11,11,60,,,0.5,0.8,exp,z,1,0.8465845000464469,-10.14,0,10.14,0,7.16,-7.16,-7.16,-7.16,-7.16,7.16,7.16,7.16,4,114,111,112,11,SL,1,F,23,R,2025-05-07_10h15.43.338,RewSL_SL_EEG,
ping,high,midRight,DOWN,red,r,lowA,Stimuli\red_bar1.png,Stimuli\red_bar1.png,Stimuli\ping.png,midLeft,lowB,downRight,lowC,downLeft,upLeft,upRight,2,m,,,,,0,12,12,46,,,0.6,0.7,exp,m,1,0.8888622000813484,10.14,0,-10.14,0,7.16,-7.16,-7.16,-7.16,-7.16,7.16,7.16,7.16,4,224,112,113,11,SL,1,F,23,R,2025-05-07_10h15.43.338,RewSL_SL_EEG,
ping,lowC,downLeft,DOWN,green,l,lowA,Stimuli\green_bar1.png,Stimuli\green_bar1.png,Stimuli\ping.png,midLeft,lowB,downRight,high,midRight,upLeft,upRight,2,m,,,,,0,13,13,91,,,0.5,0.7,exp,m,1,0.9117292000446469,-7.16,-7.16,-10.14,0,7.16,-7.16,10.14,0,-7.16,7.16,7.16,7.16,4,234,113,114,11,SL,1,F,23,R,2025-05-07_10h15.43.338,RewSL_SL_EEG,
ping,high,midRight,UP,green,l,lowA,Stimuli\green_bar1.png,Stimuli\green_bar1.png,Stimuli\ping.png,midLeft,lowB,downRight,lowC,downLeft,upLeft,upRight,2,z,,,,,0,14,14,9,,,0.5,0.6,exp,z,1,0.9389107999159023,10.14,0,-10.14,0,7.16,-7.16,-7.16,-7.16,-7.16,7.16,7.16,7.16,4,124,114,115,11,SL,1,F,23,R,2025-05-07_10h15.43.338,RewSL_SL_EEG,
ping,lowB,downRight,DOWN,green,l,lowA,Stimuli\green_bar1.png,Stimuli\green_bar1.png,Stimuli\ping.png,midLeft,high,midRight,lowC,downLeft,upLeft,upRight,2,m,,,,,0,15,15,83,,,0.5,0.7,exp,m,1,0.78039249998983,7.16,-7.16,-10.14,0,10.14,0,-7.16,-7.16,-7.16,7.16,7.16,7.16,4,244,115,116,11,SL,1,F,23,R,2025-05-07_10h15.43.338,RewSL_SL_EEG,
ping,lowA,midLeft,DOWN,red,l,high,Stimuli\red_bar1.png,Stimuli\red_bar1.png,Stimuli\ping.png,midRight,lowB,downRight,lowC,downLeft,upLeft,upRight,2,m,,,,,0,16,16,58,,,0.4,0.8,exp,z,0,0.7457086000358686,-10.14,0,10.14,0,7.16,-7.16,-7.16,-7.16,-7.16,7.16,7.16,7.16,4,214,116,117,11,SL,1,F,23,R,2025-05-07_10h15.43.338,RewSL_SL_EEG,
ping,lowB,downRight,UP,red,r,lowA,Stimuli\red_bar1.png,Stimuli\red_bar1.png,Stimuli\ping.png,midLeft,high,midRight,lowC,downLeft,upLeft,upRight,2,z,,,,,0,17,17,68,,,0.4,0.7,exp,z,1,1.0387852999847382,7.16,-7.16,-10.14,0,10.14,0,-7.16,-7.16,-7.16,7.16,7.16,7.16,4,144,117,118,11,SL,1,F,23,R,2025-05-07_10h15.43.338,RewSL_SL_EEG,
ping,lowA,midLeft,DOWN,red,r,high,Stimuli\red_bar1.png,Stimuli\red_bar1.png,Stimuli\ping.png,midRight,lowB,downRight,lowC,downLeft,upLeft,upRight,2,m,,,,,0,18,18,54,,,0.6,0.7,exp,m,1,0.8055950999259949,-10.14,0,10.14,0,7.16,-7.16,-7.16,-7.16,-7.16,7.16,7.16,7.16,4,214,118,119,11,SL,1,F,23,R,2025-05-07_10h15.43.338,RewSL_SL_EEG,
ping,high,midRight,DOWN,green,r,lowA,Stimuli\green_bar1.png,Stimuli\green_bar1.png,Stimuli\ping.png,midLeft,lowB,downRight,lowC,downLeft,upLeft,upRight,2,m,,,,,0,19,19,31,,,0.5,0.8,exp,z,0,0.8965964999515563,10.14,0,-10.14,0,7.16,-7.16,-7.16,-7.16,-7.16,7.16,7.16,7.16,4,224,119,120,11,SL,1,F,23,R,2025-05-07_10h15.43.338,RewSL_SL_EEG,
ping,high,midRight,UP,green,r,lowA,Stimuli\green_bar1.png,Stimuli\green_bar1.png,Stimuli\ping.png,midLeft,lowB,downRight,lowC,downLeft,upLeft,upRight,2,z,,,,,0,20,20,5,,,0.4,0.6,exp,z,1,0.7801987000275403,10.14,0,-10.14,0,7.16,-7.16,-7.16,-7.16,-7.16,7.16,7.16,7.16,4,124,120,121,11,SL,1,F,23,R,2025-05-07_10h15.43.338,RewSL_SL_EEG,
ping,high,midRight,UP,green,l,lowA,Stimuli\green_bar1.png,Stimuli\green_bar1.png,Stimuli\ping.png,midLeft,lowB,downRight,lowC,downLeft,upLeft,upRight,2,z,,,,,0,21,21,41,,,0.5,0.6,exp,z,1,0.7060159000102431,10.14,0,-10.14,0,7.16,-7.16,-7.16,-7.16,-7.16,7.16,7.16,7.16,4,124,121,122,11,SL,1,F,23,R,2025-05-07_10h15.43.338,RewSL_SL_EEG,
ping,lowC,downLeft,UP,red,r,lowA,Stimuli\red_bar1.png,Stimuli\red_bar1.png,Stimuli\ping.png,midLeft,lowB,downRight,high,midRight,upLeft,upRight,2,z,,,,,0,22,22,84,,,0.6,0.8,exp,m,0,0.9035071000689641,-7.16,-7.16,-10.14,0,7.16,-7.16,10.14,0,-7.16,7.16,7.16,7.16,4,134,122,123,11,SL,1,F,23,R,2025-05-07_10h15.43.338,RewSL_SL_EEG,
ping,high,midRight,DOWN,red,l,lowA,Stimuli\red_bar1.png,Stimuli\red_bar1.png,Stimuli\ping.png,midLeft,lowB,downRight,lowC,downLeft,upLeft,upRight,2,m,,,,,0,23,23,42,,,0.5,0.6,exp,z,0,0.8637038000160828,10.14,0,-10.14,0,7.16,-7.16,-7.16,-7.16,-7.16,7.16,7.16,7.16,4,224,123,124,11,SL,1,F,23,R,2025-05-07_10h15.43.338,RewSL_SL_EEG,
ping,lowA,midLeft,DOWN,green,l,high,Stimuli\green_bar1.png,Stimuli\green_bar1.png,Stimuli\ping.png,midRight,lowB,downRight,lowC,downLeft,upLeft,upRight,2,m,,,,,0,24,24,59,,,0.4,0.6,exp,m,1,0.9627169999293983,-10.14,0,10.14,0,7.16,-7.16,-7.16,-7.16,-7.16,7.16,7.16,7.16,4,214,124,125,11,SL,1,F,23,R,2025-05-07_10h15.43.338,RewSL_SL_EEG,
ping,lowC,downLeft,DOWN,red,r,lowA,Stimuli\red_bar1.png,Stimuli\red_bar1.png,Stimuli\ping.png,midLeft,lowB,downRight,high,midRight,upLeft,upRight,2,m,,,,,0,25,25,94,,,0.5,0.7,exp,m,1,1.1795905999606475,-7.16,-7.16,-10.14,0,7.16,-7.16,10.14,0,-7.16,7.16,7.16,7.16,4,234,125,126,11,SL,1,F,23,R,2025-05-07_10h15.43.338,RewSL_SL_EEG,
ping,high,midRight,DOWN,red,r,lowA,Stimuli\red_bar1.png,Stimuli\red_bar1.png,Stimuli\ping.png,midLeft,lowB,downRight,lowC,downLeft,upLeft,upRight,2,m,,,,,0,26,26,14,,,0.5,0.8,exp,m,1,0.9297406999394298,10.14,0,-10.14,0,7.16,-7.16,-7.16,-7.16,-7.16,7.16,7.16,7.16,4,224,126,127,11,SL,1,F,23,R,2025-05-07_10h15.43.338,RewSL_SL_EEG,
ping,high,midRight,DOWN,red,r,lowA,Stimuli\red_bar1.png,Stimuli\red_bar1.png,Stimuli\ping.png,midLeft,lowB,downRight,lowC,downLeft,upLeft,upRight,2,m,,,,,0,27,27,38,,,0.6,0.7,exp,m,1,0.9794055999955162,10.14,0,-10.14,0,7.16,-7.16,-7.16,-7.16,-7.16,7.16,7.16,7.16,4,224,127,128,11,SL,1,F,23,R,2025-05-07_10h15.43.338,RewSL_SL_EEG,
ping,lowC,downLeft,UP,green,r,lowA,Stimuli\green_bar1.png,Stimuli\green_bar1.png,Stimuli\ping.png,midLeft,lowB,downRight,high,midRight,upLeft,upRight,2,z,,,,,0,28,28,85,,,0.6,0.6,exp,z,1,1.128516500000842,-7.16,-7.16,-10.14,0,7.16,-7.16,10.14,0,-7.16,7.16,7.16,7.16,4,134,128,129,11,SL,1,F,23,R,2025-05-07_10h15.43.338,RewSL_SL_EEG,
ping,lowA,midLeft,UP,green,l,high,Stimuli\green_bar1.png,Stimuli\green_bar1.png,Stimuli\ping.png,midRight,lowB,downRight,lowC,downLeft,upLeft,upRight,2,z,,,,,0,29,29,65,,,0.6,0.7,exp,z,1,1.0048410999588668,-10.14,0,10.14,0,7.16,-7.16,-7.16,-7.16,-7.16,7.16,7.16,7.16,4,114,129,130,11,SL,1,F,23,R,2025-05-07_10h15.43.338,RewSL_SL_EEG,
ping,high,midRight,DOWN,red,r,lowA,Stimuli\red_bar1.png,Stimuli\red_bar1.png,Stimuli\ping.png,midLeft,lowB,downRight,lowC,downLeft,upLeft,upRight,2,m,,,,,0,30,30,22,,,0.5,0.7,exp,m,1,0.738046900019981,10.14,0,-10.14,0,7.16,-7.16,-7.16,-7.16,-7.16,7.16,7.16,7.16,4,224,130,131,11,SL,1,F,23,R,2025-05-07_10h15.43.338,RewSL_SL_EEG,
ping,lowB,downRight,DOWN,red,r,lowA,Stimuli\red_bar1.png,Stimuli\red_bar1.png,Stimuli\ping.png,midLeft,high,midRight,lowC,downLeft,upLeft,upRight,2,m,,,,,0,31,31,70,,,0.4,0.8,exp,z,0,1.255408599972725,7.16,-7.16,-10.14,0,10.14,0,-7.16,-7.16,-7.16,7.16,7.16,7.16,4,244,131,132,11,SL,1,F,23,R,2025-05-07_10h15.43.338,RewSL_SL_EEG,
ping,high,midRight,UP,green,r,lowA,Stimuli\green_bar1.png,Stimuli\green_bar1.png,Stimuli\ping.png,midLeft,lowB,downRight,lowC,downLeft,upLeft,upRight,2,z,,,,,0,32,32,13,,,0.4,0.7,exp,z,1,0.662842100020498,10.14,0,-10.14,0,7.16,-7.16,-7.16,-7.16,-7.16,7.16,7.16,7.16,4,124,132,133,11,SL,1,F,23,R,2025-05-07_10h15.43.338,RewSL_SL_EEG,
ping,high,midRight,UP,red,l,lowA,Stimuli\red_bar1.png,Stimuli\red_bar1.png,Stimuli\ping.png,midLeft,lowB,downRight,lowC,downLeft,upLeft,upRight,2,z,,,,,0,33,33,24,,,0.5,0.7,exp,z,1,1.0124522000551224,10.14,0,-10.14,0,7.16,-7.16,-7.16,-7.16,-7.16,7.16,7.16,7.16,4,124,133,134,11,SL,1,F,23,R,2025-05-07_10h15.43.338,RewSL_SL_EEG,
ping,lowB,downRight,DOWN,red,l,lowA,Stimuli\red_bar1.png,Stimuli\red_bar1.png,Stimuli\ping.png,midLeft,high,midRight,lowC,downLeft,upLeft,upRight,2,m,,,,,0,34,34,82,,,0.4,0.6,exp,m,1,0.922020300058648,7.16,-7.16,-10.14,0,10.14,0,-7.16,-7.16,-7.16,7.16,7.16,7.16,4,244,134,135,11,SL,1,F,23,R,2025-05-07_10h15.43.338,RewSL_SL_EEG,
ping,lowC,downLeft,DOWN,red,l,lowA,Stimuli\red_bar1.png,Stimuli\red_bar1.png,Stimuli\ping.png,midLeft,lowB,downRight,high,midRight,upLeft,upRight,2,m,,,,,0,35,35,90,,,0.6,0.7,exp,z,0,1.176395499962382,-7.16,-7.16,-10.14,0,7.16,-7.16,10.14,0,-7.16,7.16,7.16,7.16,4,234,135,136,11,SL,1,F,23,R,2025-05-07_10h15.43.338,RewSL_SL_EEG,
ping,lowA,midLeft,UP,red,l,high,Stimuli\red_bar1.png,Stimuli\red_bar1.png,Stimuli\ping.png,midRight,lowB,downRight,lowC,downLeft,upLeft,upRight,2,z,,,,,0,36,36,56,,,0.6,0.7,exp,z,1,0.6556806000880897,-10.14,0,10.14,0,7.16,-7.16,-7.16,-7.16,-7.16,7.16,7.16,7.16,4,114,136,137,11,SL,1,F,23,R,2025-05-07_10h15.43.338,RewSL_SL_EEG,
ping,high,midRight,DOWN,red,l,lowA,Stimuli\red_bar1.png,Stimuli\red_bar1.png,Stimuli\ping.png,midLeft,lowB,downRight,lowC,downLeft,upLeft,upRight,2,m,,,,,0,37,37,26,,,0.5,0.6,exp,m,1,0.813366899965331,10.14,0,-10.14,0,7.16,-7.16,-7.16,-7.16,-7.16,7.16,7.16,7.16,4,224,137,138,11,SL,1,F,23,R,2025-05-07_10h15.43.338,RewSL_SL_EEG,
ping,lowB,downRight,DOWN,green,l,lowA,Stimuli\green_bar1.png,Stimuli\green_bar1.png,Stimuli\ping.png,midLeft,high,midRight,lowC,downLeft,upLeft,upRight,2,m,,,,,0,38,38,75,,,0.5,0.6,exp,m,1,1.0863338999915868,7.16,-7.16,-10.14,0,10.14,0,-7.16,-7.16,-7.16,7.16,7.16,7.16,4,244,138,139,11,SL,1,F,23,R,2025-05-07_10h15.43.338,RewSL_SL_EEG,
ping,high,midRight,UP,red,l,lowA,Stimuli\red_bar1.png,Stimuli\red_bar1.png,Stimuli\ping.png,midLeft,lowB,downRight,lowC,downLeft,upLeft,upRight,2,z,,,,,0,39,39,32,,,0.5,0.6,exp,z,1,0.7791407000040635,10.14,0,-10.14,0,7.16,-7.16,-7.16,-7.16,-7.16,7.16,7.16,7.16,4,124,139,140,11,SL,1,F,23,R,2025-05-07_10h15.43.338,RewSL_SL_EEG,
ping,high,midRight,UP,green,r,lowA,Stimuli\green_bar1.png,Stimuli\green_bar1.png,Stimuli\ping.png,midLeft,lowB,downRight,lowC,downLeft,upLeft,upRight,2,z,,,,,0,40,40,37,,,0.6,0.8,exp,z,1,1.1294297999702394,10.14,0,-10.14,0,7.16,-7.16,-7.16,-7.16,-7.16,7.16,7.16,7.16,4,124,140,141,11,SL,1,F,23,R,2025-05-07_10h15.43.338,RewSL_SL_EEG,
ping,high,midRight,UP,green,l,lowA,Stimuli\green_bar1.png,Stimuli\green_bar1.png,Stimuli\ping.png,midLeft,lowB,downRight,lowC,downLeft,upLeft,upRight,2,z,,,,,0,41,41,17,,,0.5,0.6,exp,z,1,0.7553633000934497,10.14,0,-10.14,0,7.16,-7.16,-7.16,-7.16,-7.16,7.16,7.16,7.16,4,124,141,142,11,SL,1,F,23,R,2025-05-07_10h15.43.338,RewSL_SL_EEG,
ping,high,midRight,UP,green,r,lowA,Stimuli\green_bar1.png,Stimuli\green_bar1.png,Stimuli\ping.png,midLeft,lowB,downRight,lowC,downLeft,upLeft,upRight,2,z,,,,,0,42,42,29,,,0.5,0.6,exp,z,1,1.0963778999866918,10.14,0,-10.14,0,7.16,-7.16,-7.16,-7.16,-7.16,7.16,7.16,7.16,4,124,142,143,11,SL,1,F,23,R,2025-05-07_10h15.43.338,RewSL_SL_EEG,
ping,high,midRight,DOWN,red,r,lowA,Stimuli\red_bar1.png,Stimuli\red_bar1.png,Stimuli\ping.png,midLeft,lowB,downRight,lowC,downLeft,upLeft,upRight,2,m,,,,,0,43,43,30,,,0.5,0.7,exp,m,1,1.0487656000768766,10.14,0,-10.14,0,7.16,-7.16,-7.16,-7.16,-7.16,7.16,7.16,7.16,4,224,143,144,11,SL,1,F,23,R,2025-05-07_10h15.43.338,RewSL_SL_EEG,
ping,high,midRight,UP,red,r,lowA,Stimuli\red_bar1.png,Stimuli\red_bar1.png,Stimuli\ping.png,midLeft,lowB,downRight,lowC,downLeft,upLeft,upRight,2,z,,,,,0,44,44,4,,,0.5,0.7,exp,z,1,0.7731971999164671,10.14,0,-10.14,0,7.16,-7.16,-7.16,-7.16,-7.16,7.16,7.16,7.16,4,124,144,145,11,SL,1,F,23,R,2025-05-07_10h15.43.338,RewSL_SL_EEG,
ping,lowA,midLeft,DOWN,red,l,high,Stimuli\red_bar1.png,Stimuli\red_bar1.png,Stimuli\ping.png,midRight,lowB,downRight,lowC,downLeft,upLeft,upRight,2,m,,,,,0,45,45,66,,,0.5,0.8,exp,m,1,0.8178447999525815,-10.14,0,10.14,0,7.16,-7.16,-7.16,-7.16,-7.16,7.16,7.16,7.16,4,214,145,146,11,SL,1,F,23,R,2025-05-07_10h15.43.338,RewSL_SL_EEG,
ping,high,midRight,DOWN,red,l,lowA,Stimuli\red_bar1.png,Stimuli\red_bar1.png,Stimuli\ping.png,midLeft,lowB,downRight,lowC,downLeft,upLeft,upRight,2,m,,,,,0,46,46,10,,,0.6,0.7,exp,m,1,0.805426900042221,10.14,0,-10.14,0,7.16,-7.16,-7.16,-7.16,-7.16,7.16,7.16,7.16,4,224,146,147,11,SL,1,F,23,R,2025-05-07_10h15.43.338,RewSL_SL_EEG,
ping,lowA,midLeft,UP,green,l,high,Stimuli\green_bar1.png,Stimuli\green_bar1.png,Stimuli\ping.png,midRight,lowB,downRight,lowC,downLeft,upLeft,upRight,2,z,,,,,0,47,47,57,,,0.6,0.7,exp,z,1,0.7714741000672802,-10.14,0,10.14,0,7.16,-7.16,-7.16,-7.16,-7.16,7.16,7.16,7.16,4,114,147,148,11,SL,1,F,23,R,2025-05-07_10h15.43.338,RewSL_SL_EEG,
ping,high,midRight,DOWN,green,l,lowA,Stimuli\green_bar1.png,Stimuli\green_bar1.png,Stimuli\ping.png,midLeft,lowB,downRight,lowC,downLeft,upLeft,upRight,2,m,,,,,0,48,48,43,,,0.6,0.7,exp,z,0,0.6557261999696493,10.14,0,-10.14,0,7.16,-7.16,-7.16,-7.16,-7.16,7.16,7.16,7.16,4,224,148,149,11,SL,1,F,23,R,2025-05-07_10h15.43.338,RewSL_SL_EEG,
ping,lowC,downLeft,DOWN,green,r,lowA,Stimuli\green_bar1.png,Stimuli\green_bar1.png,Stimuli\ping.png,midLeft,lowB,downRight,high,midRight,upLeft,upRight,2,m,,,,,0,49,49,95,,,0.6,0.8,exp,m,1,0.8711059000343084,-7.16,-7.16,-10.14,0,7.16,-7.16,10.14,0,-7.16,7.16,7.16,7.16,4,234,149,150,11,SL,1,F,23,R,2025-05-07_10h15.43.338,RewSL_SL_EEG,
ping,lowC,downLeft,DOWN,green,l,lowA,Stimuli\green_bar1.png,Stimuli\green_bar1.png,Stimuli\ping.png,midLeft,lowB,downRight,high,midRight,upLeft,upRight,2,m,,,,,0,50,50,99,,,0.4,0.7,exp,m,1,0.9387558999005705,-7.16,-7.16,-10.14,0,7.16,-7.16,10.14,0,-7.16,7.16,7.16,7.16,4,234,150,151,11,SL,1,F,23,R,2025-05-07_10h15.43.338,RewSL_SL_EEG,
ping,high,midRight,UP,green,r,lowA,Stimuli\green_bar1.png,Stimuli\green_bar1.png,Stimuli\ping.png,midLeft,lowB,downRight,lowC,downLeft,upLeft,upRight,2,z,,,,,0,51,51,45,,,0.6,0.8,exp,z,1,0.8215154999634251,10.14,0,-10.14,0,7.16,-7.16,-7.16,-7.16,-7.16,7.16,7.16,7.16,4,124,151,152,11,SL,1,F,23,R,2025-05-07_10h15.43.338,RewSL_SL_EEG,
ping,lowB,downRight,UP,green,l,lowA,Stimuli\green_bar1.png,Stimuli\green_bar1.png,Stimuli\ping.png,midLeft,high,midRight,lowC,downLeft,upLeft,upRight,2,z,,,,,0,52,52,81,,,0.6,0.8,exp,z,1,0.8804077999666333,7.16,-7.16,-10.14,0,10.14,0,-7.16,-7.16,-7.16,7.16,7.16,7.16,4,144,152,153,11,SL,1,F,23,R,2025-05-07_10h15.43.338,RewSL_SL_EEG,
ping,lowA,midLeft,UP,red,r,high,Stimuli\red_bar1.png,Stimuli\red_bar1.png,Stimuli\ping.png,midRight,lowB,downRight,lowC,downLeft,upLeft,upRight,2,z,,,,,0,53,53,52,,,0.5,0.8,exp,z,1,0.9876593999797478,-10.14,0,10.14,0,7.16,-7.16,-7.16,-7.16,-7.16,7.16,7.16,7.16,4,114,153,154,11,SL,1,F,23,R,2025-05-07_10h15.43.338,RewSL_SL_EEG,
ping,lowC,downLeft,UP,green,l,lowA,Stimuli\green_bar1.png,Stimuli\green_bar1.png,Stimuli\ping.png,midLeft,lowB,downRight,high,midRight,upLeft,upRight,2,z,,,,,0,54,54,89,,,0.5,0.6,exp,z,1,1.162452399963513,-7.16,-7.16,-10.14,0,7.16,-7.16,10.14,0,-7.16,7.16,7.16,7.16,4,134,154,155,11,SL,1,F,23,R,2025-05-07_10h15.43.338,RewSL_SL_EEG,
ping,high,midRight,UP,red,r,lowA,Stimuli\red_bar1.png,Stimuli\red_bar1.png,Stimuli\ping.png,midLeft,lowB,downRight,lowC,downLeft,upLeft,upRight,2,z,,,,,0,55,55,20,,,0.4,0.7,exp,m,0,0.9037769000278786,10.14,0,-10.14,0,7.16,-7.16,-7.16,-7.16,-7.16,7.16,7.16,7.16,4,124,155,156,11,SL,1,F,23,R,2025-05-07_10h15.43.338,RewSL_SL_EEG,
ping,high,midRight,UP,red,r,lowA,Stimuli\red_bar1.png,Stimuli\red_bar1.png,Stimuli\ping.png,midLeft,lowB,downRight,lowC,downLeft,upLeft,upRight,2,z,,,,,0,56,56,36,,,0.6,0.8,exp,z,1,0.9631373999873176,10.14,0,-10.14,0,7.16,-7.16,-7.16,-7.16,-7.16,7.16,7.16,7.16,4,124,156,157,11,SL,1,F,23,R,2025-05-07_10h15.43.338,RewSL_SL_EEG,
ping,high,midRight,DOWN,red,l,lowA,Stimuli\red_bar1.png,Stimuli\red_bar1.png,Stimuli\ping.png,midLeft,lowB,downRight,lowC,downLeft,upLeft,upRight,2,m,,,,,0,57,57,50,,,0.5,0.7,exp,m,1,0.9884913000278175,10.14,0,-10.14,0,7.16,-7.16,-7.16,-7.16,-7.16,7.16,7.16,7.16,4,224,157,158,11,SL,1,F,23,R,2025-05-07_10h15.43.338,RewSL_SL_EEG,
ping,high,midRight,DOWN,red,l,lowA,Stimuli\red_bar1.png,Stimuli\red_bar1.png,Stimuli\ping.png,midLeft,lowB,downRight,lowC,downLeft,upLeft,upRight,2,m,,,,,0,58,58,2,,,0.5,0.8,exp,m,1,0.7552117999875918,10.14,0,-10.14,0,7.16,-7.16,-7.16,-7.16,-7.16,7.16,7.16,7.16,4,224,158,159,11,SL,1,F,23,R,2025-05-07_10h15.43.338,RewSL_SL_EEG,
ping,lowA,midLeft,DOWN,green,r,high,Stimuli\green_bar1.png,Stimuli\green_bar1.png,Stimuli\ping.png,midRight,lowB,downRight,lowC,downLeft,upLeft,upRight,2,m,,,,,0,59,59,55,,,0.4,0.7,exp,z,0,0.9942767999600619,-10.14,0,10.14,0,7.16,-7.16,-7.16,-7.16,-7.16,7.16,7.16,7.16,4,214,159,160,11,SL,1,F,23,R,2025-05-07_10h15.43.338,RewSL_SL_EEG,
ping,lowB,downRight,UP,red,r,lowA,Stimuli\red_bar1.png,Stimuli\red_bar1.png,Stimuli\ping.png,midLeft,high,midRight,lowC,downLeft,upLeft,upRight,2,z,,,,,0,60,60,76,,,0.6,0.7,exp,z,1,1.2038072999566793,7.16,-7.16,-10.14,0,10.14,0,-7.16,-7.16,-7.16,7.16,7.16,7.16,4,144,160,161,11,SL,1,F,23,R,2025-05-07_10h15.43.338,RewSL_SL_EEG,
ping,high,midRight,UP,red,r,lowA,Stimuli\red_bar1.png,Stimuli\red_bar1.png,Stimuli\ping.png,midLeft,lowB,downRight,lowC,downLeft,upLeft,upRight,2,z,,,,,0,61,61,12,,,0.4,0.8,exp,z,1,0.9463046001037583,10.14,0,-10.14,0,7.16,-7.16,-7.16,-7.16,-7.16,7.16,7.16,7.16,4,124,161,162,11,SL,1,F,23,R,2025-05-07_10h15.43.338,RewSL_SL_EEG,
ping,high,midRight,UP,green,r,lowA,Stimuli\green_bar1.png,Stimuli\green_bar1.png,Stimuli\ping.png,midLeft,lowB,downRight,lowC,downLeft,upLeft,upRight,2,z,,,,,0,62,62,21,,,0.5,0.7,exp,None,0,,10.14,0,-10.14,0,7.16,-7.16,-7.16,-7.16,-7.16,7.16,7.16,7.16,4,124,162,163,11,SL,1,F,23,R,2025-05-07_10h15.43.338,RewSL_SL_EEG,
ping,high,midRight,UP,red,l,lowA,Stimuli\red_bar1.png,Stimuli\red_bar1.png,Stimuli\ping.png,midLeft,lowB,downRight,lowC,downLeft,upLeft,upRight,2,z,,,,,0,63,63,16,,,0.5,0.7,exp,z,1,0.7210353999398649,10.14,0,-10.14,0,7.16,-7.16,-7.16,-7.16,-7.16,7.16,7.16,7.16,4,124,163,164,11,SL,1,F,23,R,2025-05-07_10h15.43.338,RewSL_SL_EEG,
ping,high,midRight,DOWN,green,r,lowA,Stimuli\green_bar1.png,Stimuli\green_bar1.png,Stimuli\ping.png,midLeft,lowB,downRight,lowC,downLeft,upLeft,upRight,2,m,,,,,0,64,64,47,,,0.5,0.7,exp,m,1,0.755690100020729,10.14,0,-10.14,0,7.16,-7.16,-7.16,-7.16,-7.16,7.16,7.16,7.16,4,224,164,165,11,SL,1,F,23,R,2025-05-07_10h15.43.338,RewSL_SL_EEG,
ping,high,midRight,DOWN,green,l,lowA,Stimuli\green_bar1.png,Stimuli\green_bar1.png,Stimuli\ping.png,midLeft,lowB,downRight,lowC,downLeft,upLeft,upRight,2,m,,,,,0,65,65,27,,,0.5,0.6,exp,m,1,0.746430900064297,10.14,0,-10.14,0,7.16,-7.16,-7.16,-7.16,-7.16,7.16,7.16,7.16,4,224,165,166,11,SL,1,F,23,R,2025-05-07_10h15.43.338,RewSL_SL_EEG,
ping,lowB,downRight,DOWN,green,r,lowA,Stimuli\green_bar1.png,Stimuli\green_bar1.png,Stimuli\ping.png,midLeft,high,midRight,lowC,downLeft,upLeft,upRight,2,m,,,,,0,66,66,71,,,0.5,0.8,exp,None,0,,7.16,-7.16,-10.14,0,10.14,0,-7.16,-7.16,-7.16,7.16,7.16,7.16,4,244,166,167,11,SL,1,F,23,R,2025-05-07_10h15.43.338,RewSL_SL_EEG,
ping,lowB,downRight,DOWN,red,l,lowA,Stimuli\red_bar1.png,Stimuli\red_bar1.png,Stimuli\ping.png,midLeft,high,midRight,lowC,downLeft,upLeft,upRight,2,m,,,,,0,67,67,74,,,0.5,0.8,exp,z,0,1.1023964999476448,7.16,-7.16,-10.14,0,10.14,0,-7.16,-7.16,-7.16,7.16,7.16,7.16,4,244,167,168,11,SL,1,F,23,R,2025-05-07_10h15.43.338,RewSL_SL_EEG,
ping,lowC,downLeft,UP,red,r,lowA,Stimuli\red_bar1.png,Stimuli\red_bar1.png,Stimuli\ping.png,midLeft,lowB,downRight,high,midRight,upLeft,upRight,2,z,,,,,0,68,68,92,,,0.6,0.7,exp,m,0,0.9883254999294877,-7.16,-7.16,-10.14,0,7.16,-7.16,10.14,0,-7.16,7.16,7.16,7.16,4,134,168,169,11,SL,1,F,23,R,2025-05-07_10h15.43.338,RewSL_SL_EEG,
ping,high,midRight,DOWN,green,l,lowA,Stimuli\green_bar1.png,Stimuli\green_bar1.png,Stimuli\ping.png,midLeft,lowB,downRight,lowC,downLeft,upLeft,upRight,2,m,,,,,0,69,69,3,,,0.4,0.8,exp,z,0,1.054033700027503,10.14,0,-10.14,0,7.16,-7.16,-7.16,-7.16,-7.16,7.16,7.16,7.16,4,224,169,170,11,SL,1,F,23,R,2025-05-07_10h15.43.338,RewSL_SL_EEG,
ping,lowA,midLeft,UP,green,r,high,Stimuli\green_bar1.png,Stimuli\green_bar1.png,Stimuli\ping.png,midRight,lowB,downRight,lowC,downLeft,upLeft,upRight,2,z,,,,,0,70,70,53,,,0.6,0.7,exp,z,1,0.8635343000059947,-10.14,0,10.14,0,7.16,-7.16,-7.16,-7.16,-7.16,7.16,7.16,7.16,4,114,170,171,11,SL,1,F,23,R,2025-05-07_10h15.43.338,RewSL_SL_EEG,
ping,high,midRight,DOWN,green,r,lowA,Stimuli\green_bar1.png,Stimuli\green_bar1.png,Stimuli\ping.png,midLeft,lowB,downRight,lowC,downLeft,upLeft,upRight,2,m,,,,,0,71,71,7,,,0.4,0.7,exp,z,0,0.6955362999578938,10.14,0,-10.14,0,7.16,-7.16,-7.16,-7.16,-7.16,7.16,7.16,7.16,4,224,171,172,11,SL,1,F,23,R,2025-05-07_10h15.43.338,RewSL_SL_EEG,
ping,high,midRight,DOWN,green,r,lowA,Stimuli\green_bar1.png,Stimuli\green_bar1.png,Stimuli\ping.png,midLeft,lowB,downRight,lowC,downLeft,upLeft,upRight,2,m,,,,,0,72,72,15,,,0.5,0.7,exp,m,1,0.7136611000169069,10.14,0,-10.14,0,7.16,-7.16,-7.16,-7.16,-7.16,7.16,7.16,7.16,4,224,172,173,11,SL,1,F,23,R,2025-05-07_10h15.43.338,RewSL_SL_EEG,
ping,lowB,downRight,UP,green,r,lowA,Stimuli\green_bar1.png,Stimuli\green_bar1.png,Stimuli\ping.png,midLeft,high,midRight,lowC,downLeft,upLeft,upRight,2,z,,,,,0,73,73,77,,,0.4,0.7,exp,m,0,1.0377010999945924,7.16,-7.16,-10.14,0,10.14,0,-7.16,-7.16,-7.16,7.16,7.16,7.16,4,144,173,174,11,SL,1,F,23,R,2025-05-07_10h15.43.338,RewSL_SL_EEG,
ping,lowA,midLeft,UP,red,l,high,Stimuli\red_bar1.png,Stimuli\red_bar1.png,Stimuli\ping.png,midRight,lowB,downRight,lowC,downLeft,upLeft,upRight,2,z,,,,,0,74,74,64,,,0.5,0.8,exp,z,1,0.8460603998973966,-10.14,0,10.14,0,7.16,-7.16,-7.16,-7.16,-7.16,7.16,7.16,7.16,4,114,174,175,11,SL,1,F,23,R,2025-05-07_10h15.43.338,RewSL_SL_EEG,
ping,high,midRight,UP,red,r,lowA,Stimuli\red_bar1.png,Stimuli\red_bar1.png,Stimuli\ping.png,midLeft,lowB,downRight,lowC,downLeft,upLeft,upRight,2,z,,,,,0,75,75,28,,,0.6,0.7,exp,z,1,0.8298168999608606,10.14,0,-10.14,0,7.16,-7.16,-7.16,-7.16,-7.16,7.16,7.16,7.16,4,124,175,176,11,SL,1,F,23,R,2025-05-07_10h15.43.338,RewSL_SL_EEG,
ping,lowC,downLeft,UP,red,l,lowA,Stimuli\red_bar1.png,Stimuli\red_bar1.png,Stimuli\ping.png,midLeft,lowB,downRight,high,midRight,upLeft,upRight,2,z,,,,,0,76,76,88,,,0.5,0.7,exp,m,0,0.9438341999193653,-7.16,-7.16,-10.14,0,7.16,-7.16,10.14,0,-7.16,7.16,7.16,7.16,4,134,176,177,11,SL,1,F,23,R,2025-05-07_10h15.43.338,RewSL_SL_EEG,
ping,high,midRight,UP,red,l,lowA,Stimuli\red_bar1.png,Stimuli\red_bar1.png,Stimuli\ping.png,midLeft,lowB,downRight,lowC,downLeft,upLeft,upRight,2,z,,,,,0,77,77,40,,,0.4,0.7,exp,z,1,0.6295208000810817,10.14,0,-10.14,0,7.16,-7.16,-7.16,-7.16,-7.16,7.16,7.16,7.16,4,124,177,178,11,SL,1,F,23,R,2025-05-07_10h15.43.338,RewSL_SL_EEG,
ping,lowC,downLeft,DOWN,green,r,lowA,Stimuli\green_bar1.png,Stimuli\green_bar1.png,Stimuli\ping.png,midLeft,lowB,downRight,high,midRight,upLeft,upRight,2,m,,,,,0,78,78,87,,,0.5,0.6,exp,z,0,1.0459185000509024,-7.16,-7.16,-10.14,0,7.16,-7.16,10.14,0,-7.16,7.16,7.16,7.16,4,234,178,179,11,SL,1,F,23,R,2025-05-07_10h15.43.338,RewSL_SL_EEG,
ping,high,midRight,UP,red,l,lowA,Stimuli\red_bar1.png,Stimuli\red_bar1.png,Stimuli\ping.png,midLeft,lowB,downRight,lowC,downLeft,upLeft,upRight,2,z,,,,,0,79,79,8,,,0.5,0.7,exp,z,1,0.6125762000447139,10.14,0,-10.14,0,7.16,-7.16,-7.16,-7.16,-7.16,7.16,7.16,7.16,4,124,179,180,11,SL,1,F,23,R,2025-05-07_10h15.43.338,RewSL_SL_EEG,
ping,high,midRight,DOWN,red,l,lowA,Stimuli\red_bar1.png,Stimuli\red_bar1.png,Stimuli\ping.png,midLeft,lowB,downRight,lowC,downLeft,upLeft,upRight,2,m,,,,,0,80,80,18,,,0.5,0.7,exp,m,1,0.8384994000662118,10.14,0,-10.14,0,7.16,-7.16,-7.16,-7.16,-7.16,7.16,7.16,7.16,4,224,180,181,11,SL,1,F,23,R,2025-05-07_10h15.43.338,RewSL_SL_EEG,
ping,lowA,midLeft,DOWN,green,r,high,Stimuli\green_bar1.png,Stimuli\green_bar1.png,Stimuli\ping.png,midRight,lowB,downRight,lowC,downLeft,upLeft,upRight,2,m,,,,,0,81,81,63,,,0.5,0.6,exp,z,0,0.7509955000132322,-10.14,0,10.14,0,7.16,-7.16,-7.16,-7.16,-7.16,7.16,7.16,7.16,4,214,181,182,11,SL,1,F,23,R,2025-05-07_10h15.43.338,RewSL_SL_EEG,
ping,lowC,downLeft,DOWN,red,r,lowA,Stimuli\red_bar1.png,Stimuli\red_bar1.png,Stimuli\ping.png,midLeft,lowB,downRight,high,midRight,upLeft,upRight,2,m,,,,,0,82,82,86,,,0.6,0.8,exp,z,0,1.1123947999440134,-7.16,-7.16,-10.14,0,7.16,-7.16,10.14,0,-7.16,7.16,7.16,7.16,4,234,182,183,11,SL,1,F,23,R,2025-05-07_10h15.43.338,RewSL_SL_EEG,
ping,lowA,midLeft,DOWN,green,l,high,Stimuli\green_bar1.png,Stimuli\green_bar1.png,Stimuli\ping.png,midRight,lowB,downRight,lowC,downLeft,upLeft,upRight,2,m,,,,,0,83,83,67,,,0.6,0.7,exp,z,0,1.0124829999404028,-10.14,0,10.14,0,7.16,-7.16,-7.16,-7.16,-7.16,7.16,7.16,7.16,4,214,183,184,11,SL,1,F,23,R,2025-05-07_10h15.43.338,RewSL_SL_EEG,
ping,high,midRight,UP,green,l,lowA,Stimuli\green_bar1.png,Stimuli\green_bar1.png,Stimuli\ping.png,midLeft,lowB,downRight,lowC,downLeft,upLeft,upRight,2,z,,,,,0,84,84,1,,,0.6,0.7,exp,m,0,0.8963838000781834,10.14,0,-10.14,0,7.16,-7.16,-7.16,-7.16,-7.16,7.16,7.16,7.16,4,124,184,185,11,SL,1,F,23,R,2025-05-07_10h15.43.338,RewSL_SL_EEG,
ping,high,midRight,UP,green,l,lowA,Stimuli\green_bar1.png,Stimuli\green_bar1.png,Stimuli\ping.png,midLeft,lowB,downRight,lowC,downLeft,upLeft,upRight,2,z,,,,,0,85,85,33,,,0.5,0.6,exp,m,0,0.9546656999737024,10.14,0,-10.14,0,7.16,-7.16,-7.16,-7.16,-7.16,7.16,7.16,7.16,4,124,185,186,11,SL,1,F,23,R,2025-05-07_10h15.43.338,RewSL_SL_EEG,
ping,lowC,downLeft,UP,green,r,lowA,Stimuli\green_bar1.png,Stimuli\green_bar1.png,Stimuli\ping.png,midLeft,lowB,downRight,high,midRight,upLeft,upRight,2,z,,,,,0,86,86,93,,,0.6,0.7,exp,z,1,1.138959200005047,-7.16,-7.16,-10.14,0,7.16,-7.16,10.14,0,-7.16,7.16,7.16,7.16,4,134,186,187,11,SL,1,F,23,R,2025-05-07_10h15.43.338,RewSL_SL_EEG,
ping,high,midRight,DOWN,green,l,lowA,Stimuli\green_bar1.png,Stimuli\green_bar1.png,Stimuli\ping.png,midLeft,lowB,downRight,lowC,downLeft,upLeft,upRight,2,m,,,,,0,87,87,35,,,0.6,0.6,exp,m,1,0.7973412999417633,10.14,0,-10.14,0,7.16,-7.16,-7.16,-7.16,-7.16,7.16,7.16,7.16,4,224,187,188,11,SL,1,F,23,R,2025-05-07_10h15.43.338,RewSL_SL_EEG,
ping,lowB,downRight,DOWN,red,r,lowA,Stimuli\red_bar1.png,Stimuli\red_bar1.png,Stimuli\ping.png,midLeft,high,midRight,lowC,downLeft,upLeft,upRight,2,m,,,,,0,88,88,78,,,0.6,0.8,exp,None,0,,7.16,-7.16,-10.14,0,10.14,0,-7.16,-7.16,-7.16,7.16,7.16,7.16,4,244,188,189,11,SL,1,F,23,R,2025-05-07_10h15.43.338,RewSL_SL_EEG,
ping,high,midRight,DOWN,green,l,lowA,Stimuli\green_bar1.png,Stimuli\green_bar1.png,Stimuli\ping.png,midLeft,lowB,downRight,lowC,downLeft,upLeft,upRight,2,m,,,,,0,89,89,19,,,0.6,0.8,exp,m,1,1.0301179999951273,10.14,0,-10.14,0,7.16,-7.16,-7.16,-7.16,-7.16,7.16,7.16,7.16,4,224,189,190,11,SL,1,F,23,R,2025-05-07_10h15.43.338,RewSL_SL_EEG,
ping,high,midRight,DOWN,green,r,lowA,Stimuli\green_bar1.png,Stimuli\green_bar1.png,Stimuli\ping.png,midLeft,lowB,downRight,lowC,downLeft,upLeft,upRight,2,m,,,,,0,90,90,39,,,0.6,0.6,exp,m,1,0.7876732000149786,10.14,0,-10.14,0,7.16,-7.16,-7.16,-7.16,-7.16,7.16,7.16,7.16,4,224,190,191,11,SL,1,F,23,R,2025-05-07_10h15.43.338,RewSL_SL_EEG,
ping,high,midRight,DOWN,red,r,lowA,Stimuli\red_bar1.png,Stimuli\red_bar1.png,Stimuli\ping.png,midLeft,lowB,downRight,lowC,downLeft,upLeft,upRight,2,m,,,,,0,91,91,6,,,0.5,0.8,exp,z,0,0.7044497999595478,10.14,0,-10.14,0,7.16,-7.16,-7.16,-7.16,-7.16,7.16,7.16,7.16,4,224,191,192,11,SL,1,F,23,R,2025-05-07_10h15.43.338,RewSL_SL_EEG,
ping,high,midRight,DOWN,green,l,lowA,Stimuli\green_bar1.png,Stimuli\green_bar1.png,Stimuli\ping.png,midLeft,lowB,downRight,lowC,downLeft,upLeft,upRight,2,m,,,,,0,92,92,51,,,0.5,0.7,exp,m,1,1.0293955999659374,10.14,0,-10.14,0,7.16,-7.16,-7.16,-7.16,-7.16,7.16,7.16,7.16,4,224,192,193,11,SL,1,F,23,R,2025-05-07_10h15.43.338,RewSL_SL_EEG,
ping,high,midRight,UP,red,r,lowA,Stimuli\red_bar1.png,Stimuli\red_bar1.png,Stimuli\ping.png,midLeft,lowB,downRight,lowC,downLeft,upLeft,upRight,2,z,,,,,0,93,93,44,,,0.5,0.8,exp,z,1,0.6702883000252768,10.14,0,-10.14,0,7.16,-7.16,-7.16,-7.16,-7.16,7.16,7.16,7.16,4,124,193,194,11,SL,1,F,23,R,2025-05-07_10h15.43.338,RewSL_SL_EEG,
ping,high,midRight,DOWN,green,l,lowA,Stimuli\green_bar1.png,Stimuli\green_bar1.png,Stimuli\ping.png,midLeft,lowB,downRight,lowC,downLeft,upLeft,upRight,2,m,,,,,0,94,94,11,,,0.4,0.6,exp,m,1,0.7696389999473467,10.14,0,-10.14,0,7.16,-7.16,-7.16,-7.16,-7.16,7.16,7.16,7.16,4,224,194,195,11,SL,1,F,23,R,2025-05-07_10h15.43.338,RewSL_SL_EEG,
ping,lowC,downLeft,DOWN,red,l,lowA,Stimuli\red_bar1.png,Stimuli\red_bar1.png,Stimuli\ping.png,midLeft,lowB,downRight,high,midRight,upLeft,upRight,2,m,,,,,0,95,95,98,,,0.6,0.6,exp,m,1,1.1215579999843612,-7.16,-7.16,-10.14,0,7.16,-7.16,10.14,0,-7.16,7.16,7.16,7.16,4,234,195,196,11,SL,1,F,23,R,2025-05-07_10h15.43.338,RewSL_SL_EEG,
ping,high,midRight,UP,red,l,lowA,Stimuli\red_bar1.png,Stimuli\red_bar1.png,Stimuli\ping.png,midLeft,lowB,downRight,lowC,downLeft,upLeft,upRight,2,z,,,,,0,96,96,48,,,0.5,0.7,exp,z,1,0.7692515000235289,10.14,0,-10.14,0,7.16,-7.16,-7.16,-7.16,-7.16,7.16,7.16,7.16,4,124,196,197,11,SL,1,F,23,R,2025-05-07_10h15.43.338,RewSL_SL_EEG,
ping,lowA,midLeft,UP,green,r,high,Stimuli\green_bar1.png,Stimuli\green_bar1.png,Stimuli\ping.png,midRight,lowB,downRight,lowC,downLeft,upLeft,upRight,2,z,,,,,0,97,97,61,,,0.4,0.8,exp,m,0,1.0042575999395922,-10.14,0,10.14,0,7.16,-7.16,-7.16,-7.16,-7.16,7.16,7.16,7.16,4,114,197,198,11,SL,1,F,23,R,2025-05-07_10h15.43.338,RewSL_SL_EEG,
ping,lowC,downLeft,UP,red,l,lowA,Stimuli\red_bar1.png,Stimuli\red_bar1.png,Stimuli\ping.png,midLeft,lowB,downRight,high,midRight,upLeft,upRight,2,z,,,,,0,98,98,96,,,0.5,0.7,exp,z,1,0.7540167999686673,-7.16,-7.16,-10.14,0,7.16,-7.16,10.14,0,-7.16,7.16,7.16,7.16,4,134,198,199,11,SL,1,F,23,R,2025-05-07_10h15.43.338,RewSL_SL_EEG,
ping,lowB,downRight,UP,red,l,lowA,Stimuli\red_bar1.png,Stimuli\red_bar1.png,Stimuli\ping.png,midLeft,high,midRight,lowC,downLeft,upLeft,upRight,2,z,,,,,0,99,99,72,,,0.5,0.6,exp,m,0,1.180191699997522,7.16,-7.16,-10.14,0,10.14,0,-7.16,-7.16,-7.16,7.16,7.16,7.16,4,144,199,200,11,SL,1,F,23,R,2025-05-07_10h15.43.338,RewSL_SL_EEG,
ping,high,midLeft,UP,green,l,lowA,Stimuli\green_bar1.png,Stimuli\green_bar1.png,Stimuli\ping.png,midRight,lowB,downLeft,lowC,downRight,upLeft,upRight,1,z,,,,,0,0,0,5,,,0.5,0.6,exp,z,1,1.0367606000509113,-10.14,0,10.14,0,-7.16,-7.16,7.16,-7.16,-7.16,7.16,7.16,7.16,2,112,200,201,11,SL,1,F,23,R,2025-05-07_10h15.43.338,RewSL_SL_EEG,
ping,lowC,downRight,DOWN,green,l,lowA,Stimuli\green_bar1.png,Stimuli\green_bar1.png,Stimuli\ping.png,midRight,lowB,downLeft,high,midLeft,upLeft,upRight,1,m,,,,,0,1,1,95,,,0.6,0.6,exp,m,1,0.8515016000019386,7.16,-7.16,10.14,0,-7.16,-7.16,-10.14,0,-7.16,7.16,7.16,7.16,2,242,201,202,11,SL,1,F,23,R,2025-05-07_10h15.43.338,RewSL_SL_EEG,
ping,high,midLeft,UP,red,l,lowA,Stimuli\red_bar1.png,Stimuli\red_bar1.png,Stimuli\ping.png,midRight,lowB,downLeft,lowC,downRight,upLeft,upRight,1,z,,,,,0,2,2,36,,,0.6,0.8,exp,z,1,0.9696598000591621,-10.14,0,10.14,0,-7.16,-7.16,7.16,-7.16,-7.16,7.16,7.16,7.16,2,112,202,203,11,SL,1,F,23,R,2025-05-07_10h15.43.338,RewSL_SL_EEG,
ping,high,midLeft,DOWN,red,l,lowA,Stimuli\red_bar1.png,Stimuli\red_bar1.png,Stimuli\ping.png,midRight,lowB,downLeft,lowC,downRight,upLeft,upRight,1,m,,,,,0,3,3,46,,,0.5,0.7,exp,m,1,1.1958621999947354,-10.14,0,10.14,0,-7.16,-7.16,7.16,-7.16,-7.16,7.16,7.16,7.16,2,212,203,204,11,SL,1,F,23,R,2025-05-07_10h15.43.338,RewSL_SL_EEG,
ping,lowB,downLeft,DOWN,red,r,lowA,Stimuli\red_bar1.png,Stimuli\red_bar1.png,Stimuli\ping.png,midRight,high,midLeft,lowC,downRight,upLeft,upRight,1,m,,,,,0,4,4,74,,,0.6,0.8,exp,None,0,,-7.16,-7.16,10.14,0,-10.14,0,7.16,-7.16,-7.16,7.16,7.16,7.16,2,232,204,205,11,SL,1,F,23,R,2025-05-07_10h15.43.338,RewSL_SL_EEG,
ping,high,midLeft,DOWN,green,r,lowA,Stimuli\green_bar1.png,Stimuli\green_bar1.png,Stimuli\ping.png,midRight,lowB,downLeft,lowC,downRight,upLeft,upRight,1,m,,,,,0,5,5,51,,,0.5,0.8,exp,m,1,0.953879400040023,-10.14,0,10.14,0,-7.16,-7.16,7.16,-7.16,-7.16,7.16,7.16,7.16,2,212,205,206,11,SL,1,F,23,R,2025-05-07_10h15.43.338,RewSL_SL_EEG,
ping,high,midLeft,UP,red,r,lowA,Stimuli\red_bar1.png,Stimuli\red_bar1.png,Stimuli\ping.png,midRight,lowB,downLeft,lowC,downRight,upLeft,upRight,1,z,,,,,0,6,6,8,,,0.4,0.7,exp,z,1,0.787828000029549,-10.14,0,10.14,0,-7.16,-7.16,7.16,-7.16,-7.16,7.16,7.16,7.16,2,112,206,207,11,SL,1,F,23,R,2025-05-07_10h15.43.338,RewSL_SL_EEG,
ping,lowA,midRight,DOWN,red,r,high,Stimuli\red_bar1.png,Stimuli\red_bar1.png,Stimuli\ping.png,midLeft,lowB,downLeft,lowC,downRight,upLeft,upRight,1,m,,,,,0,7,7,58,,,0.4,0.6,exp,m,1,0.7545550999930128,10.14,0,-10.14,0,-7.16,-7.16,7.16,-7.16,-7.16,7.16,7.16,7.16,2,222,207,208,11,SL,1,F,23,R,2025-05-07_10h15.43.338,RewSL_SL_EEG,
ping,high,midLeft,UP,red,l,lowA,Stimuli\red_bar1.png,Stimuli\red_bar1.png,Stimuli\ping.png,midRight,lowB,downLeft,lowC,downRight,upLeft,upRight,1,z,,,,,0,8,8,28,,,0.5,0.7,exp,z,1,0.9043646999634802,-10.14,0,10.14,0,-7.16,-7.16,7.16,-7.16,-7.16,7.16,7.16,7.16,2,112,208,209,11,SL,1,F,23,R,2025-05-07_10h15.43.338,RewSL_SL_EEG,
ping,lowC,downRight,DOWN,green,r,lowA,Stimuli\green_bar1.png,Stimuli\green_bar1.png,Stimuli\ping.png,midRight,lowB,downLeft,high,midLeft,upLeft,upRight,1,m,,,,,0,9,9,91,,,0.4,0.7,exp,m,1,0.9628321999916807,7.16,-7.16,10.14,0,-7.16,-7.16,-10.14,0,-7.16,7.16,7.16,7.16,2,242,209,210,11,SL,1,F,23,R,2025-05-07_10h15.43.338,RewSL_SL_EEG,
ping,lowB,downLeft,UP,green,l,lowA,Stimuli\green_bar1.png,Stimuli\green_bar1.png,Stimuli\ping.png,midRight,high,midLeft,lowC,downRight,upLeft,upRight,1,z,,,,,0,10,10,77,,,0.4,0.7,exp,z,1,0.8049684000434354,-7.16,-7.16,10.14,0,-10.14,0,7.16,-7.16,-7.16,7.16,7.16,7.16,2,132,210,211,11,SL,1,F,23,R,2025-05-07_10h15.43.338,RewSL_SL_EEG,
ping,lowB,downLeft,UP,red,r,lowA,Stimuli\red_bar1.png,Stimuli\red_bar1.png,Stimuli\ping.png,midRight,high,midLeft,lowC,downRight,upLeft,upRight,1,z,,,,,0,11,11,72,,,0.4,0.8,exp,z,1,0.6459715000819415,-7.16,-7.16,10.14,0,-10.14,0,7.16,-7.16,-7.16,7.16,7.16,7.16,2,132,211,212,11,SL,1,F,23,R,2025-05-07_10h15.43.338,RewSL_SL_EEG,
ping,high,midLeft,DOWN,green,r,lowA,Stimuli\green_bar1.png,Stimuli\green_bar1.png,Stimuli\ping.png,midRight,lowB,downLeft,lowC,downRight,upLeft,upRight,1,m,,,,,0,12,12,43,,,0.5,0.6,exp,m,1,1.0122021000133827,-10.14,0,10.14,0,-7.16,-7.16,7.16,-7.16,-7.16,7.16,7.16,7.16,2,212,212,213,11,SL,1,F,23,R,2025-05-07_10h15.43.338,RewSL_SL_EEG,
ping,high,midLeft,UP,red,l,lowA,Stimuli\red_bar1.png,Stimuli\red_bar1.png,Stimuli\ping.png,midRight,lowB,downLeft,lowC,downRight,upLeft,upRight,1,z,,,,,0,13,13,44,,,0.5,0.7,exp,z,1,1.0126444000052288,-10.14,0,10.14,0,-7.16,-7.16,7.16,-7.16,-7.16,7.16,7.16,7.16,2,112,213,214,11,SL,1,F,23,R,2025-05-07_10h15.43.338,RewSL_SL_EEG,
ping,high,midLeft,DOWN,green,r,lowA,Stimuli\green_bar1.png,Stimuli\green_bar1.png,Stimuli\ping.png,midRight,lowB,downLeft,lowC,downRight,upLeft,upRight,1,m,,,,,0,14,14,27,,,0.5,0.6,exp,m,1,0.7629335999954492,-10.14,0,10.14,0,-7.16,-7.16,7.16,-7.16,-7.16,7.16,7.16,7.16,2,212,214,215,11,SL,1,F,23,R,2025-05-07_10h15.43.338,RewSL_SL_EEG,
ping,lowB,downLeft,DOWN,green,l,lowA,Stimuli\green_bar1.png,Stimuli\green_bar1.png,Stimuli\ping.png,midRight,high,midLeft,lowC,downRight,upLeft,upRight,1,m,,,,,0,15,15,79,,,0.6,0.7,exp,m,1,0.8801652999827638,-7.16,-7.16,10.14,0,-10.14,0,7.16,-7.16,-7.16,7.16,7.16,7.16,2,232,215,216,11,SL,1,F,23,R,2025-05-07_10h15.43.338,RewSL_SL_EEG,
ping,lowB,downLeft,DOWN,green,l,lowA,Stimuli\green_bar1.png,Stimuli\green_bar1.png,Stimuli\ping.png,midRight,high,midLeft,lowC,downRight,upLeft,upRight,1,m,,,,,0,16,16,71,,,0.5,0.7,exp,m,1,1.2797818999970332,-7.16,-7.16,10.14,0,-10.14,0,7.16,-7.16,-7.16,7.16,7.16,7.16,2,232,216,217,11,SL,1,F,23,R,2025-05-07_10h15.43.338,RewSL_SL_EEG,
ping,lowC,downRight,DOWN,green,l,lowA,Stimuli\green_bar1.png,Stimuli\green_bar1.png,Stimuli\ping.png,midRight,lowB,downLeft,high,midLeft,upLeft,upRight,1,m,,,,,0,17,17,87,,,0.5,0.8,exp,m,1,0.9129996999399737,7.16,-7.16,10.14,0,-7.16,-7.16,-10.14,0,-7.16,7.16,7.16,7.16,2,242,217,218,11,SL,1,F,23,R,2025-05-07_10h15.43.338,RewSL_SL_EEG,
ping,lowC,downRight,DOWN,red,r,lowA,Stimuli\red_bar1.png,Stimuli\red_bar1.png,Stimuli\ping.png,midRight,lowB,downLeft,high,midLeft,upLeft,upRight,1,m,,,,,0,18,18,98,,,0.5,0.6,exp,z,0,0.8973255000310019,7.16,-7.16,10.14,0,-7.16,-7.16,-10.14,0,-7.16,7.16,7.16,7.16,2,242,218,219,11,SL,1,F,23,R,2025-05-07_10h15.43.338,RewSL_SL_EEG,
ping,high,midLeft,UP,green,r,lowA,Stimuli\green_bar1.png,Stimuli\green_bar1.png,Stimuli\ping.png,midRight,lowB,downLeft,lowC,downRight,upLeft,upRight,1,z,,,,,0,19,19,25,,,0.4,0.7,exp,m,0,0.8128864999162033,-10.14,0,10.14,0,-7.16,-7.16,7.16,-7.16,-7.16,7.16,7.16,7.16,2,112,219,220,11,SL,1,F,23,R,2025-05-07_10h15.43.338,RewSL_SL_EEG,
ping,high,midLeft,DOWN,red,r,lowA,Stimuli\red_bar1.png,Stimuli\red_bar1.png,Stimuli\ping.png,midRight,lowB,downLeft,lowC,downRight,upLeft,upRight,1,m,,,,,0,20,20,34,,,0.5,0.7,exp,z,0,0.8542951000854373,-10.14,0,10.14,0,-7.16,-7.16,7.16,-7.16,-7.16,7.16,7.16,7.16,2,212,220,221,11,SL,1,F,23,R,2025-05-07_10h15.43.338,RewSL_SL_EEG,
ping,lowB,downLeft,DOWN,green,r,lowA,Stimuli\green_bar1.png,Stimuli\green_bar1.png,Stimuli\ping.png,midRight,high,midLeft,lowC,downRight,upLeft,upRight,1,m,,,,,0,21,21,83,,,0.5,0.6,exp,None,0,,-7.16,-7.16,10.14,0,-10.14,0,7.16,-7.16,-7.16,7.16,7.16,7.16,2,232,221,222,11,SL,1,F,23,R,2025-05-07_10h15.43.338,RewSL_SL_EEG,
ping,high,midLeft,UP,green,r,lowA,Stimuli\green_bar1.png,Stimuli\green_bar1.png,Stimuli\ping.png,midRight,lowB,downLeft,lowC,downRight,upLeft,upRight,1,z,,,,,0,22,22,49,,,0.5,0.7,exp,z,1,0.8627514999825507,-10.14,0,10.14,0,-7.16,-7.16,7.16,-7.16,-7.16,7.16,7.16,7.16,2,112,222,223,11,SL,1,F,23,R,2025-05-07_10h15.43.338,RewSL_SL_EEG,
ping,lowB,downLeft,UP,green,r,lowA,Stimuli\green_bar1.png,Stimuli\green_bar1.png,Stimuli\ping.png,midRight,high,midLeft,lowC,downRight,upLeft,upRight,1,z,,,,,0,23,23,81,,,0.5,0.6,exp,m,0,0.9386889000888914,-7.16,-7.16,10.14,0,-10.14,0,7.16,-7.16,-7.16,7.16,7.16,7.16,2,132,223,224,11,SL,1,F,23,R,2025-05-07_10h15.43.338,RewSL_SL_EEG,
ping,high,midLeft,DOWN,green,r,lowA,Stimuli\green_bar1.png,Stimuli\green_bar1.png,Stimuli\ping.png,midRight,lowB,downLeft,lowC,downRight,upLeft,upRight,1,m,,,,,0,24,24,3,,,0.4,0.7,exp,z,0,0.7713209999492392,-10.14,0,10.14,0,-7.16,-7.16,7.16,-7.16,-7.16,7.16,7.16,7.16,2,212,224,225,11,SL,1,F,23,R,2025-05-07_10h15.43.338,RewSL_SL_EEG,
ping,high,midLeft,UP,green,l,lowA,Stimuli\green_bar1.png,Stimuli\green_bar1.png,Stimuli\ping.png,midRight,lowB,downLeft,lowC,downRight,upLeft,upRight,1,z,,,,,0,25,25,13,,,0.4,0.7,exp,z,1,0.7627209998900071,-10.14,0,10.14,0,-7.16,-7.16,7.16,-7.16,-7.16,7.16,7.16,7.16,2,112,225,226,11,SL,1,F,23,R,2025-05-07_10h15.43.338,RewSL_SL_EEG,
ping,high,midLeft,DOWN,green,l,lowA,Stimuli\green_bar1.png,Stimuli\green_bar1.png,Stimuli\ping.png,midRight,lowB,downLeft,lowC,downRight,upLeft,upRight,1,m,,,,,0,26,26,47,,,0.4,0.7,exp,m,1,0.6792082999600098,-10.14,0,10.14,0,-7.16,-7.16,7.16,-7.16,-7.16,7.16,7.16,7.16,2,212,226,227,11,SL,1,F,23,R,2025-05-07_10h15.43.338,RewSL_SL_EEG,
ping,high,midLeft,DOWN,red,r,lowA,Stimuli\red_bar1.png,Stimuli\red_bar1.png,Stimuli\ping.png,midRight,lowB,downLeft,lowC,downRight,upLeft,upRight,1,m,,,,,0,27,27,26,,,0.6,0.7,exp,m,1,0.696442799991928,-10.14,0,10.14,0,-7.16,-7.16,7.16,-7.16,-7.16,7.16,7.16,7.16,2,212,227,228,11,SL,1,F,23,R,2025-05-07_10h15.43.338,RewSL_SL_EEG,
ping,lowA,midRight,DOWN,green,r,high,Stimuli\green_bar1.png,Stimuli\green_bar1.png,Stimuli\ping.png,midLeft,lowB,downLeft,lowC,downRight,upLeft,upRight,1,m,,,,,0,28,28,59,,,0.5,0.8,exp,z,0,0.7557592999655753,10.14,0,-10.14,0,-7.16,-7.16,7.16,-7.16,-7.16,7.16,7.16,7.16,2,222,228,229,11,SL,1,F,23,R,2025-05-07_10h15.43.338,RewSL_SL_EEG,
ping,high,midLeft,DOWN,red,r,lowA,Stimuli\red_bar1.png,Stimuli\red_bar1.png,Stimuli\ping.png,midRight,lowB,downLeft,lowC,downRight,upLeft,upRight,1,m,,,,,0,29,29,10,,,0.6,0.8,exp,m,1,0.7546537999296561,-10.14,0,10.14,0,-7.16,-7.16,7.16,-7.16,-7.16,7.16,7.16,7.16,2,212,229,230,11,SL,1,F,23,R,2025-05-07_10h15.43.338,RewSL_SL_EEG,
ping,high,midLeft,UP,green,r,lowA,Stimuli\green_bar1.png,Stimuli\green_bar1.png,Stimuli\ping.png,midRight,lowB,downLeft,lowC,downRight,upLeft,upRight,1,z,,,,,0,30,30,41,,,0.5,0.8,exp,z,1,0.6369538999861106,-10.14,0,10.14,0,-7.16,-7.16,7.16,-7.16,-7.16,7.16,7.16,7.16,2,112,230,231,11,SL,1,F,23,R,2025-05-07_10h15.43.338,RewSL_SL_EEG,
ping,lowB,downLeft,DOWN,red,l,lowA,Stimuli\red_bar1.png,Stimuli\red_bar1.png,Stimuli\ping.png,midRight,high,midLeft,lowC,downRight,upLeft,upRight,1,m,,,,,0,31,31,78,,,0.6,0.6,exp,z,0,0.9953566000331193,-7.16,-7.16,10.14,0,-10.14,0,7.16,-7.16,-7.16,7.16,7.16,7.16,2,232,231,232,11,SL,1,F,23,R,2025-05-07_10h15.43.338,RewSL_SL_EEG,
ping,high,midLeft,UP,red,l,lowA,Stimuli\red_bar1.png,Stimuli\red_bar1.png,Stimuli\ping.png,midRight,lowB,downLeft,lowC,downRight,upLeft,upRight,1,z,,,,,0,32,32,20,,,0.4,0.7,exp,z,1,0.6721556999254972,-10.14,0,10.14,0,-7.16,-7.16,7.16,-7.16,-7.16,7.16,7.16,7.16,2,112,232,233,11,SL,1,F,23,R,2025-05-07_10h15.43.338,RewSL_SL_EEG,
ping,lowC,downRight,DOWN,red,r,lowA,Stimuli\red_bar1.png,Stimuli\red_bar1.png,Stimuli\ping.png,midRight,lowB,downLeft,high,midLeft,upLeft,upRight,1,m,,,,,0,33,33,90,,,0.5,0.7,exp,m,1,1.0624900999246165,7.16,-7.16,10.14,0,-7.16,-7.16,-10.14,0,-7.16,7.16,7.16,7.16,2,242,233,234,11,SL,1,F,23,R,2025-05-07_10h15.43.338,RewSL_SL_EEG,
ping,high,midLeft,DOWN,green,l,lowA,Stimuli\green_bar1.png,Stimuli\green_bar1.png,Stimuli\ping.png,midRight,lowB,downLeft,lowC,downRight,upLeft,upRight,1,m,,,,,0,34,34,39,,,0.4,0.8,exp,None,0,,-10.14,0,10.14,0,-7.16,-7.16,7.16,-7.16,-7.16,7.16,7.16,7.16,2,212,234,235,11,SL,1,F,23,R,2025-05-07_10h15.43.338,RewSL_SL_EEG,
ping,high,midLeft,UP,green,r,lowA,Stimuli\green_bar1.png,Stimuli\green_bar1.png,Stimuli\ping.png,midRight,lowB,downLeft,lowC,downRight,upLeft,upRight,1,z,,,,,0,35,35,1,,,0.6,0.6,exp,z,1,0.6474792000371963,-10.14,0,10.14,0,-7.16,-7.16,7.16,-7.16,-7.16,7.16,7.16,7.16,2,112,235,236,11,SL,1,F,23,R,2025-05-07_10h15.43.338,RewSL_SL_EEG,
ping,lowC,downRight,UP,red,r,lowA,Stimuli\red_bar1.png,Stimuli\red_bar1.png,Stimuli\ping.png,midRight,lowB,downLeft,high,midLeft,upLeft,upRight,1,z,,,,,0,36,36,96,,,0.6,0.7,exp,m,0,1.220235800021328,7.16,-7.16,10.14,0,-7.16,-7.16,-10.14,0,-7.16,7.16,7.16,7.16,2,142,236,237,11,SL,1,F,23,R,2025-05-07_10h15.43.338,RewSL_SL_EEG,
ping,high,midLeft,DOWN,red,r,lowA,Stimuli\red_bar1.png,Stimuli\red_bar1.png,Stimuli\ping.png,midRight,lowB,downLeft,lowC,downRight,upLeft,upRight,1,m,,,,,0,37,37,42,,,0.5,0.6,exp,z,0,0.9216494000284001,-10.14,0,10.14,0,-7.16,-7.16,7.16,-7.16,-7.16,7.16,7.16,7.16,2,212,237,238,11,SL,1,F,23,R,2025-05-07_10h15.43.338,RewSL_SL_EEG,
ping,lowA,midRight,UP,green,l,high,Stimuli\green_bar1.png,Stimuli\green_bar1.png,Stimuli\ping.png,midLeft,lowB,downLeft,lowC,downRight,upLeft,upRight,1,z,,,,,0,38,38,61,,,0.6,0.6,exp,m,0,0.879761999938637,10.14,0,-10.14,0,-7.16,-7.16,7.16,-7.16,-7.16,7.16,7.16,7.16,2,122,238,239,11,SL,1,F,23,R,2025-05-07_10h15.43.338,RewSL_SL_EEG,
ping,lowA,midRight,DOWN,green,r,high,Stimuli\green_bar1.png,Stimuli\green_bar1.png,Stimuli\ping.png,midLeft,lowB,downLeft,lowC,downRight,upLeft,upRight,1,m,,,,,0,39,39,67,,,0.5,0.6,exp,m,1,0.769605900044553,10.14,0,-10.14,0,-7.16,-7.16,7.16,-7.16,-7.16,7.16,7.16,7.16,2,222,239,240,11,SL,1,F,23,R,2025-05-07_10h15.43.338,RewSL_SL_EEG,
ping,lowA,midRight,UP,green,l,high,Stimuli\green_bar1.png,Stimuli\green_bar1.png,Stimuli\ping.png,midLeft,lowB,downLeft,lowC,downRight,upLeft,upRight,1,z,,,,,0,40,40,53,,,0.6,0.6,exp,z,1,0.6384110999060795,10.14,0,-10.14,0,-7.16,-7.16,7.16,-7.16,-7.16,7.16,7.16,7.16,2,122,240,241,11,SL,1,F,23,R,2025-05-07_10h15.43.338,RewSL_SL_EEG,
ping,high,midLeft,UP,green,r,lowA,Stimuli\green_bar1.png,Stimuli\green_bar1.png,Stimuli\ping.png,midRight,lowB,downLeft,lowC,downRight,upLeft,upRight,1,z,,,,,0,41,41,17,,,0.6,0.7,exp,z,1,0.8965881000040099,-10.14,0,10.14,0,-7.16,-7.16,7.16,-7.16,-7.16,7.16,7.16,7.16,2,112,241,242,11,SL,1,F,23,R,2025-05-07_10h15.43.338,RewSL_SL_EEG,
ping,high,midLeft,DOWN,red,l,lowA,Stimuli\red_bar1.png,Stimuli\red_bar1.png,Stimuli\ping.png,midRight,lowB,downLeft,lowC,downRight,upLeft,upRight,1,m,,,,,0,42,42,6,,,0.5,0.7,exp,m,1,1.0369900999357924,-10.14,0,10.14,0,-7.16,-7.16,7.16,-7.16,-7.16,7.16,7.16,7.16,2,212,242,243,11,SL,1,F,23,R,2025-05-07_10h15.43.338,RewSL_SL_EEG,
ping,lowB,downLeft,UP,red,r,lowA,Stimuli\red_bar1.png,Stimuli\red_bar1.png,Stimuli\ping.png,midRight,high,midLeft,lowC,downRight,upLeft,upRight,1,z,,,,,0,43,43,80,,,0.6,0.7,exp,None,0,,-7.16,-7.16,10.14,0,-10.14,0,7.16,-7.16,-7.16,7.16,7.16,7.16,2,132,243,244,11,SL,1,F,23,R,2025-05-07_10h15.43.338,RewSL_SL_EEG,
ping,lowA,midRight,UP,green,r,high,Stimuli\green_bar1.png,Stimuli\green_bar1.png,Stimuli\ping.png,midLeft,lowB,downLeft,lowC,downRight,upLeft,upRight,1,z,,,,,0,44,44,65,,,0.6,0.8,exp,z,1,0.9212834000354633,10.14,0,-10.14,0,-7.16,-7.16,7.16,-7.16,-7.16,7.16,7.16,7.16,2,122,244,245,11,SL,1,F,23,R,2025-05-07_10h15.43.338,RewSL_SL_EEG,
ping,lowC,downRight,UP,red,l,lowA,Stimuli\red_bar1.png,Stimuli\red_bar1.png,Stimuli\ping.png,midRight,lowB,downLeft,high,midLeft,upLeft,upRight,1,z,,,,,0,45,45,84,,,0.6,0.7,exp,m,0,1.1369678999762982,7.16,-7.16,10.14,0,-7.16,-7.16,-10.14,0,-7.16,7.16,7.16,7.16,2,142,245,246,11,SL,1,F,23,R,2025-05-07_10h15.43.338,RewSL_SL_EEG,
ping,lowA,midRight,DOWN,green,l,high,Stimuli\green_bar1.png,Stimuli\green_bar1.png,Stimuli\ping.png,midLeft,lowB,downLeft,lowC,downRight,upLeft,upRight,1,m,,,,,0,46,46,63,,,0.6,0.7,exp,z,0,1.0547789999982342,10.14,0,-10.14,0,-7.16,-7.16,7.16,-7.16,-7.16,7.16,7.16,7.16,2,222,246,247,11,SL,1,F,23,R,2025-05-07_10h15.43.338,RewSL_SL_EEG,
ping,high,midLeft,UP,green,l,lowA,Stimuli\green_bar1.png,Stimuli\green_bar1.png,Stimuli\ping.png,midRight,lowB,downLeft,lowC,downRight,upLeft,upRight,1,z,,,,,0,47,47,21,,,0.5,0.6,exp,z,1,1.196128899930045,-10.14,0,10.14,0,-7.16,-7.16,7.16,-7.16,-7.16,7.16,7.16,7.16,2,112,247,248,11,SL,1,F,23,R,2025-05-07_10h15.43.338,RewSL_SL_EEG,
ping,high,midLeft,DOWN,red,l,lowA,Stimuli\red_bar1.png,Stimuli\red_bar1.png,Stimuli\ping.png,midRight,lowB,downLeft,lowC,downRight,upLeft,upRight,1,m,,,,,0,48,48,38,,,0.5,0.8,exp,m,1,0.6385644000256434,-10.14,0,10.14,0,-7.16,-7.16,7.16,-7.16,-7.16,7.16,7.16,7.16,2,212,248,249,11,SL,1,F,23,R,2025-05-07_10h15.43.338,RewSL_SL_EEG,
ping,high,midLeft,UP,red,r,lowA,Stimuli\red_bar1.png,Stimuli\red_bar1.png,Stimuli\ping.png,midRight,lowB,downLeft,lowC,downRight,upLeft,upRight,1,z,,,,,0,49,49,40,,,0.6,0.6,exp,z,1,0.5960294000105932,-10.14,0,10.14,0,-7.16,-7.16,7.16,-7.16,-7.16,7.16,7.16,7.16,2,112,249,250,11,SL,1,F,23,R,2025-05-07_10h15.43.338,RewSL_SL_EEG,
ping,high,midLeft,DOWN,green,l,lowA,Stimuli\green_bar1.png,Stimuli\green_bar1.png,Stimuli\ping.png,midRight,lowB,downLeft,lowC,downRight,upLeft,upRight,1,m,,,,,0,50,50,23,,,0.4,0.7,exp,m,1,0.9706269999733195,-10.14,0,10.14,0,-7.16,-7.16,7.16,-7.16,-7.16,7.16,7.16,7.16,2,212,250,251,11,SL,1,F,23,R,2025-05-07_10h15.43.338,RewSL_SL_EEG,
ping,high,midLeft,DOWN,green,l,lowA,Stimuli\green_bar1.png,Stimuli\green_bar1.png,Stimuli\ping.png,midRight,lowB,downLeft,lowC,downRight,upLeft,upRight,1,m,,,,,0,51,51,31,,,0.4,0.7,exp,m,1,0.6219820999540389,-10.14,0,10.14,0,-7.16,-7.16,7.16,-7.16,-7.16,7.16,7.16,7.16,2,212,251,252,11,SL,1,F,23,R,2025-05-07_10h15.43.338,RewSL_SL_EEG,
ping,high,midLeft,UP,green,r,lowA,Stimuli\green_bar1.png,Stimuli\green_bar1.png,Stimuli\ping.png,midRight,lowB,downLeft,lowC,downRight,upLeft,upRight,1,z,,,,,0,52,52,9,,,0.5,0.8,exp,z,1,0.9712895000120625,-10.14,0,10.14,0,-7.16,-7.16,7.16,-7.16,-7.16,7.16,7.16,7.16,2,112,252,253,11,SL,1,F,23,R,2025-05-07_10h15.43.338,RewSL_SL_EEG,
ping,high,midLeft,DOWN,green,r,lowA,Stimuli\green_bar1.png,Stimuli\green_bar1.png,Stimuli\ping.png,midRight,lowB,downLeft,lowC,downRight,upLeft,upRight,1,m,,,,,0,53,53,35,,,0.6,0.7,exp,m,1,0.60458689997904,-10.14,0,10.14,0,-7.16,-7.16,7.16,-7.16,-7.16,7.16,7.16,7.16,2,212,253,254,11,SL,1,F,23,R,2025-05-07_10h15.43.338,RewSL_SL_EEG,
ping,high,midLeft,UP,green,r,lowA,Stimuli\green_bar1.png,Stimuli\green_bar1.png,Stimuli\ping.png,midRight,lowB,downLeft,lowC,downRight,upLeft,upRight,1,z,,,,,0,54,54,33,,,0.5,0.7,exp,z,1,0.5851514000678435,-10.14,0,10.14,0,-7.16,-7.16,7.16,-7.16,-7.16,7.16,7.16,7.16,2,112,254,255,11,SL,1,F,23,R,2025-05-07_10h15.43.338,RewSL_SL_EEG,
ping,lowB,downLeft,DOWN,red,l,lowA,Stimuli\red_bar1.png,Stimuli\red_bar1.png,Stimuli\ping.png,midRight,high,midLeft,lowC,downRight,upLeft,upRight,1,m,,,,,0,55,55,70,,,0.5,0.8,exp,m,1,0.903255800018087,-7.16,-7.16,10.14,0,-10.14,0,7.16,-7.16,-7.16,7.16,7.16,7.16,2,232,255,256,11,SL,1,F,23,R,2025-05-07_10h15.43.338,RewSL_SL_EEG,
ping,lowC,downRight,UP,red,r,lowA,Stimuli\red_bar1.png,Stimuli\red_bar1.png,Stimuli\ping.png,midRight,lowB,downLeft,high,midLeft,upLeft,upRight,1,z,,,,,0,56,56,88,,,0.5,0.7,exp,None,0,,7.16,-7.16,10.14,0,-7.16,-7.16,-10.14,0,-7.16,7.16,7.16,7.16,2,142,256,257,11,SL,1,F,23,R,2025-05-07_10h15.43.338,RewSL_SL_EEG,
ping,lowC,downRight,UP,green,l,lowA,Stimuli\green_bar1.png,Stimuli\green_bar1.png,Stimuli\ping.png,midRight,lowB,downLeft,high,midLeft,upLeft,upRight,1,z,,,,,0,57,57,85,,,0.5,0.8,exp,m,0,0.9626916999695823,7.16,-7.16,10.14,0,-7.16,-7.16,-10.14,0,-7.16,7.16,7.16,7.16,2,142,257,258,11,SL,1,F,23,R,2025-05-07_10h15.43.338,RewSL_SL_EEG,
ping,lowA,midRight,DOWN,green,l,high,Stimuli\green_bar1.png,Stimuli\green_bar1.png,Stimuli\ping.png,midLeft,lowB,downLeft,lowC,downRight,upLeft,upRight,1,m,,,,,0,58,58,55,,,0.5,0.7,exp,z,0,0.9467288999585435,10.14,0,-10.14,0,-7.16,-7.16,7.16,-7.16,-7.16,7.16,7.16,7.16,2,222,258,259,11,SL,1,F,23,R,2025-05-07_10h15.43.338,RewSL_SL_EEG,
ping,lowB,downLeft,UP,red,l,lowA,Stimuli\red_bar1.png,Stimuli\red_bar1.png,Stimuli\ping.png,midRight,high,midLeft,lowC,downRight,upLeft,upRight,1,z,,,,,0,59,59,76,,,0.5,0.7,exp,z,1,0.6541502999607474,-7.16,-7.16,10.14,0,-10.14,0,7.16,-7.16,-7.16,7.16,7.16,7.16,2,132,259,260,11,SL,1,F,23,R,2025-05-07_10h15.43.338,RewSL_SL_EEG,
ping,high,midLeft,DOWN,red,l,lowA,Stimuli\red_bar1.png,Stimuli\red_bar1.png,Stimuli\ping.png,midRight,lowB,downLeft,lowC,downRight,upLeft,upRight,1,m,,,,,0,60,60,22,,,0.5,0.6,exp,z,0,0.713649999932386,-10.14,0,10.14,0,-7.16,-7.16,7.16,-7.16,-7.16,7.16,7.16,7.16,2,212,260,261,11,SL,1,F,23,R,2025-05-07_10h15.43.338,RewSL_SL_EEG,
ping,high,midLeft,UP,green,l,lowA,Stimuli\green_bar1.png,Stimuli\green_bar1.png,Stimuli\ping.png,midRight,lowB,downLeft,lowC,downRight,upLeft,upRight,1,z,,,,,0,61,61,45,,,0.5,0.8,exp,m,0,0.7298041000030935,-10.14,0,10.14,0,-7.16,-7.16,7.16,-7.16,-7.16,7.16,7.16,7.16,2,112,261,262,11,SL,1,F,23,R,2025-05-07_10h15.43.338,RewSL_SL_EEG,
ping,high,midLeft,DOWN,red,l,lowA,Stimuli\red_bar1.png,Stimuli\red_bar1.png,Stimuli\ping.png,midRight,lowB,downLeft,lowC,downRight,upLeft,upRight,1,m,,,,,0,62,62,30,,,0.5,0.7,exp,None,0,,-10.14,0,10.14,0,-7.16,-7.16,7.16,-7.16,-7.16,7.16,7.16,7.16,2,212,262,263,11,SL,1,F,23,R,2025-05-07_10h15.43.338,RewSL_SL_EEG,
ping,high,midLeft,UP,red,r,lowA,Stimuli\red_bar1.png,Stimuli\red_bar1.png,Stimuli\ping.png,midRight,lowB,downLeft,lowC,downRight,upLeft,upRight,1,z,,,,,0,63,63,0,,,0.5,0.6,exp,z,1,0.6462731999345124,-10.14,0,10.14,0,-7.16,-7.16,7.16,-7.16,-7.16,7.16,7.16,7.16,2,112,263,264,11,SL,1,F,23,R,2025-05-07_10h15.43.338,RewSL_SL_EEG,
ping,lowA,midRight,DOWN,red,l,high,Stimuli\red_bar1.png,Stimuli\red_bar1.png,Stimuli\ping.png,midLeft,lowB,downLeft,lowC,downRight,upLeft,upRight,1,m,,,,,0,64,64,62,,,0.5,0.6,exp,z,0,0.9638187000527978,10.14,0,-10.14,0,-7.16,-7.16,7.16,-7.16,-7.16,7.16,7.16,7.16,2,222,264,265,11,SL,1,F,23,R,2025-05-07_10h15.43.338,RewSL_SL_EEG,
ping,high,midLeft,UP,red,l,lowA,Stimuli\red_bar1.png,Stimuli\red_bar1.png,Stimuli\ping.png,midRight,lowB,downLeft,lowC,downRight,upLeft,upRight,1,z,,,,,0,65,65,4,,,0.5,0.8,exp,z,1,0.6465792000526562,-10.14,0,10.14,0,-7.16,-7.16,7.16,-7.16,-7.16,7.16,7.16,7.16,2,112,265,266,11,SL,1,F,23,R,2025-05-07_10h15.43.338,RewSL_SL_EEG,
ping,high,midLeft,UP,red,r,lowA,Stimuli\red_bar1.png,Stimuli\red_bar1.png,Stimuli\ping.png,midRight,lowB,downLeft,lowC,downRight,upLeft,upRight,1,z,,,,,0,66,66,24,,,0.6,0.8,exp,z,1,0.5967468000017107,-10.14,0,10.14,0,-7.16,-7.16,7.16,-7.16,-7.16,7.16,7.16,7.16,2,112,266,267,11,SL,1,F,23,R,2025-05-07_10h15.43.338,RewSL_SL_EEG,
ping,high,midLeft,DOWN,red,l,lowA,Stimuli\red_bar1.png,Stimuli\red_bar1.png,Stimuli\ping.png,midRight,lowB,downLeft,lowC,downRight,upLeft,upRight,1,m,,,,,0,67,67,14,,,0.6,0.8,exp,m,1,0.680368399946019,-10.14,0,10.14,0,-7.16,-7.16,7.16,-7.16,-7.16,7.16,7.16,7.16,2,212,267,268,11,SL,1,F,23,R,2025-05-07_10h15.43.338,RewSL_SL_EEG,
ping,high,midLeft,DOWN,green,r,lowA,Stimuli\green_bar1.png,Stimuli\green_bar1.png,Stimuli\ping.png,midRight,lowB,downLeft,lowC,downRight,upLeft,upRight,1,m,,,,,0,68,68,11,,,0.6,0.7,exp,m,1,1.146018100087531,-10.14,0,10.14,0,-7.16,-7.16,7.16,-7.16,-7.16,7.16,7.16,7.16,2,212,268,269,11,SL,1,F,23,R,2025-05-07_10h15.43.338,RewSL_SL_EEG,
ping,high,midLeft,DOWN,red,r,lowA,Stimuli\red_bar1.png,Stimuli\red_bar1.png,Stimuli\ping.png,midRight,lowB,downLeft,lowC,downRight,upLeft,upRight,1,m,,,,,0,69,69,50,,,0.5,0.6,exp,m,1,0.6626252999994904,-10.14,0,10.14,0,-7.16,-7.16,7.16,-7.16,-7.16,7.16,7.16,7.16,2,212,269,270,11,SL,1,F,23,R,2025-05-07_10h15.43.338,RewSL_SL_EEG,
ping,high,midLeft,UP,red,r,lowA,Stimuli\red_bar1.png,Stimuli\red_bar1.png,Stimuli\ping.png,midRight,lowB,downLeft,lowC,downRight,upLeft,upRight,1,z,,,,,0,70,70,48,,,0.5,0.7,exp,z,1,0.4886340000666678,-10.14,0,10.14,0,-7.16,-7.16,7.16,-7.16,-7.16,7.16,7.16,7.16,2,112,270,271,11,SL,1,F,23,R,2025-05-07_10h15.43.338,RewSL_SL_EEG,
ping,high,midLeft,DOWN,green,r,lowA,Stimuli\green_bar1.png,Stimuli\green_bar1.png,Stimuli\ping.png,midRight,lowB,downLeft,lowC,downRight,upLeft,upRight,1,m,,,,,0,71,71,19,,,0.6,0.7,exp,m,1,0.856754699954763,-10.14,0,10.14,0,-7.16,-7.16,7.16,-7.16,-7.16,7.16,7.16,7.16,2,212,271,272,11,SL,1,F,23,R,2025-05-07_10h15.43.338,RewSL_SL_EEG,
ping,lowA,midRight,UP,green,r,high,Stimuli\green_bar1.png,Stimuli\green_bar1.png,Stimuli\ping.png,midLeft,lowB,downLeft,lowC,downRight,upLeft,upRight,1,z,,,,,0,72,72,57,,,0.4,0.8,exp,z,1,0.8047851000446826,10.14,0,-10.14,0,-7.16,-7.16,7.16,-7.16,-7.16,7.16,7.16,7.16,2,122,272,273,11,SL,1,F,23,R,2025-05-07_10h15.43.338,RewSL_SL_EEG,
ping,lowC,downRight,DOWN,red,l,lowA,Stimuli\red_bar1.png,Stimuli\red_bar1.png,Stimuli\ping.png,midRight,lowB,downLeft,high,midLeft,upLeft,upRight,1,m,,,,,0,73,73,86,,,0.6,0.6,exp,m,1,0.968959900084883,7.16,-7.16,10.14,0,-7.16,-7.16,-10.14,0,-7.16,7.16,7.16,7.16,2,242,273,274,11,SL,1,F,23,R,2025-05-07_10h15.43.338,RewSL_SL_EEG,
ping,lowB,downLeft,UP,green,r,lowA,Stimuli\green_bar1.png,Stimuli\green_bar1.png,Stimuli\ping.png,midRight,high,midLeft,lowC,downRight,upLeft,upRight,1,z,,,,,0,74,74,73,,,0.5,0.6,exp,m,0,0.7123882999876514,-7.16,-7.16,10.14,0,-10.14,0,7.16,-7.16,-7.16,7.16,7.16,7.16,2,132,274,275,11,SL,1,F,23,R,2025-05-07_10h15.43.338,RewSL_SL_EEG,
ping,lowC,downRight,UP,green,l,lowA,Stimuli\green_bar1.png,Stimuli\green_bar1.png,Stimuli\ping.png,midRight,lowB,downLeft,high,midLeft,upLeft,upRight,1,z,,,,,0,75,75,93,,,0.6,0.6,exp,z,1,1.0882747999858111,7.16,-7.16,10.14,0,-7.16,-7.16,-10.14,0,-7.16,7.16,7.16,7.16,2,142,275,276,11,SL,1,F,23,R,2025-05-07_10h15.43.338,RewSL_SL_EEG,
ping,high,midLeft,UP,red,r,lowA,Stimuli\red_bar1.png,Stimuli\red_bar1.png,Stimuli\ping.png,midRight,lowB,downLeft,lowC,downRight,upLeft,upRight,1,z,,,,,0,76,76,16,,,0.5,0.7,exp,z,1,0.6123592000221834,-10.14,0,10.14,0,-7.16,-7.16,7.16,-7.16,-7.16,7.16,7.16,7.16,2,112,276,277,11,SL,1,F,23,R,2025-05-07_10h15.43.338,RewSL_SL_EEG,
ping,lowA,midRight,DOWN,red,r,high,Stimuli\red_bar1.png,Stimuli\red_bar1.png,Stimuli\ping.png,midLeft,lowB,downLeft,lowC,downRight,upLeft,upRight,1,m,,,,,0,77,77,66,,,0.5,0.8,exp,m,1,0.7214113000081852,10.14,0,-10.14,0,-7.16,-7.16,7.16,-7.16,-7.16,7.16,7.16,7.16,2,222,277,278,11,SL,1,F,23,R,2025-05-07_10h15.43.338,RewSL_SL_EEG,
ping,lowB,downLeft,UP,green,l,lowA,Stimuli\green_bar1.png,Stimuli\green_bar1.png,Stimuli\ping.png,midRight,high,midLeft,lowC,downRight,upLeft,upRight,1,z,,,,,0,78,78,69,,,0.4,0.7,exp,m,0,0.6795030999928713,-7.16,-7.16,10.14,0,-10.14,0,7.16,-7.16,-7.16,7.16,7.16,7.16,2,132,278,279,11,SL,1,F,23,R,2025-05-07_10h15.43.338,RewSL_SL_EEG,
ping,lowC,downRight,DOWN,red,l,lowA,Stimuli\red_bar1.png,Stimuli\red_bar1.png,Stimuli\ping.png,midRight,lowB,downLeft,high,midLeft,upLeft,upRight,1,m,,,,,0,79,79,94,,,0.4,0.8,exp,m,1,0.7774088999722153,7.16,-7.16,10.14,0,-7.16,-7.16,-10.14,0,-7.16,7.16,7.16,7.16,2,242,279,280,11,SL,1,F,23,R,2025-05-07_10h15.43.338,RewSL_SL_EEG,
ping,high,midLeft,DOWN,red,r,lowA,Stimuli\red_bar1.png,Stimuli\red_bar1.png,Stimuli\ping.png,midRight,lowB,downLeft,lowC,downRight,upLeft,upRight,1,m,,,,,0,80,80,18,,,0.5,0.7,exp,z,0,0.5885803999844939,-10.14,0,10.14,0,-7.16,-7.16,7.16,-7.16,-7.16,7.16,7.16,7.16,2,212,280,281,11,SL,1,F,23,R,2025-05-07_10h15.43.338,RewSL_SL_EEG,
ping,lowA,midRight,DOWN,red,l,high,Stimuli\red_bar1.png,Stimuli\red_bar1.png,Stimuli\ping.png,midLeft,lowB,downLeft,lowC,downRight,upLeft,upRight,1,m,,,,,0,81,81,54,,,0.4,0.6,exp,m,1,0.7721587000414729,10.14,0,-10.14,0,-7.16,-7.16,7.16,-7.16,-7.16,7.16,7.16,7.16,2,222,281,282,11,SL,1,F,23,R,2025-05-07_10h15.43.338,RewSL_SL_EEG,
ping,high,midLeft,UP,red,l,lowA,Stimuli\red_bar1.png,Stimuli\red_bar1.png,Stimuli\ping.png,midRight,lowB,downLeft,lowC,downRight,upLeft,upRight,1,z,,,,,0,82,82,12,,,0.6,0.6,exp,z,1,0.6632160999579355,-10.14,0,10.14,0,-7.16,-7.16,7.16,-7.16,-7.16,7.16,7.16,7.16,2,112,282,283,11,SL,1,F,23,R,2025-05-07_10h15.43.338,RewSL_SL_EEG,
ping,lowB,downLeft,UP,red,l,lowA,Stimuli\red_bar1.png,Stimuli\red_bar1.png,Stimuli\ping.png,midRight,high,midLeft,lowC,downRight,upLeft,upRight,1,z,,,,,0,83,83,68,,,0.5,0.7,exp,m,0,0.6722238999791443,-7.16,-7.16,10.14,0,-10.14,0,7.16,-7.16,-7.16,7.16,7.16,7.16,2,132,283,284,11,SL,1,F,23,R,2025-05-07_10h15.43.338,RewSL_SL_EEG,
ping,lowB,downLeft,DOWN,red,r,lowA,Stimuli\red_bar1.png,Stimuli\red_bar1.png,Stimuli\ping.png,midRight,high,midLeft,lowC,downRight,upLeft,upRight,1,m,,,,,0,84,84,82,,,0.4,0.7,exp,m,1,0.9962557998951524,-7.16,-7.16,10.14,0,-10.14,0,7.16,-7.16,-7.16,7.16,7.16,7.16,2,232,284,285,11,SL,1,F,23,R,2025-05-07_10h15.43.338,RewSL_SL_EEG,
ping,high,midLeft,UP,green,l,lowA,Stimuli\green_bar1.png,Stimuli\green_bar1.png,Stimuli\ping.png,midRight,lowB,downLeft,lowC,downRight,upLeft,upRight,1,z,,,,,0,85,85,37,,,0.5,0.7,exp,m,0,0.6696187999332324,-10.14,0,10.14,0,-7.16,-7.16,7.16,-7.16,-7.16,7.16,7.16,7.16,2,112,285,286,11,SL,1,F,23,R,2025-05-07_10h15.43.338,RewSL_SL_EEG,
