trial_type,t_frequency,targetPos,Gap,arrayColor,targetOri,f1_frequency,TargetFile,stimuliFile,pingFile,f1_pos,f2_frequency,f2_pos,f3_frequency,f3_pos,f4_pos,f5_pos,Slblock,corrAns,trials_p.thisRepN,trials_p.thisTrialN,trials_p.thisN,trials_p.thisIndex,trials_e.thisRepN,trials_e.thisTrialN,trials_e.thisN,trials_e.thisIndex,thisRow.t,notes,FIX,PINGdur,epoch,key_resp.keys,key_resp.corr,targetX,targetY,filler1X,filler1Y,filler2X,filler2Y,filler3X,filler3Y,filler4X,filler4Y,filler5X,filler5Y,pingID,ID,key_resp.rt,completed_trials,trial_count,participant,learning,session_nr,gender,age,handedness,date,expName,
ping,lowC,downRight,DOWN,green,l,lowA,Stimuli\green_bar1.png,Stimuli\green_bar1.png,Stimuli\ping.png,midRight,lowB,downLeft,high,midLeft,upLeft,upRight,1,m,0,0,0,15,,,,,,,0.5,0.6,practice,None,0,7.16,-7.16,10.14,0,-7.16,-7.16,-10.14,0,-7.16,7.16,7.16,7.16,2,242,,,,2,SL,2,F,19,R,2025-06-24_15h24.16.845,RewSL_SL_EEG,
ping,lowC,downRight,UP,red,l,lowA,Stimuli\red_bar1.png,Stimuli\red_bar1.png,Stimuli\ping.png,midRight,lowB,downLeft,high,midLeft,upLeft,upRight,1,z,0,1,1,12,,,,,,,0.6,0.8,practice,z,1,7.16,-7.16,10.14,0,-7.16,-7.16,-10.14,0,-7.16,7.16,7.16,7.16,2,142,0.954958300004364,,,2,SL,2,F,19,R,2025-06-24_15h24.16.845,RewSL_SL_EEG,
ping,lowB,downLeft,DOWN,green,l,lowA,Stimuli\green_bar1.png,Stimuli\green_bar1.png,Stimuli\ping.png,midRight,high,midLeft,lowC,downRight,upLeft,upRight,1,m,0,2,2,11,,,,,,,0.4,0.7,practice,z,0,-7.16,-7.16,10.14,0,-10.14,0,7.16,-7.16,-7.16,7.16,7.16,7.16,2,232,1.220563700000639,,,2,SL,2,F,19,R,2025-06-24_15h24.16.845,RewSL_SL_EEG,
ping,high,midLeft,UP,green,r,lowA,Stimuli\green_bar1.png,Stimuli\green_bar1.png,Stimuli\ping.png,midRight,lowB,downLeft,lowC,downRight,upLeft,upRight,1,z,0,3,3,1,,,,,,,0.4,0.8,practice,None,0,-10.14,0,10.14,0,-7.16,-7.16,7.16,-7.16,-7.16,7.16,7.16,7.16,2,112,,,,2,SL,2,F,19,R,2025-06-24_15h24.16.845,RewSL_SL_EEG,
ping,lowA,midRight,DOWN,green,l,high,Stimuli\green_bar1.png,Stimuli\green_bar1.png,Stimuli\ping.png,midLeft,lowB,downLeft,lowC,downRight,upLeft,upRight,1,m,0,4,4,7,,,,,,,0.5,0.8,practice,m,1,10.14,0,-10.14,0,-7.16,-7.16,7.16,-7.16,-7.16,7.16,7.16,7.16,2,222,1.147089899997809,,,2,SL,2,F,19,R,2025-06-24_15h24.16.845,RewSL_SL_EEG,
ping,high,midLeft,UP,red,r,lowA,Stimuli\red_bar1.png,Stimuli\red_bar1.png,Stimuli\ping.png,midRight,lowB,downLeft,lowC,downRight,upLeft,upRight,1,z,0,5,5,0,,,,,,,0.4,0.7,practice,z,1,-10.14,0,10.14,0,-7.16,-7.16,7.16,-7.16,-7.16,7.16,7.16,7.16,2,112,0.729234099999303,,,2,SL,2,F,19,R,2025-06-24_15h24.16.845,RewSL_SL_EEG,
ping,lowA,midRight,UP,green,l,high,Stimuli\green_bar1.png,Stimuli\green_bar1.png,Stimuli\ping.png,midLeft,lowB,downLeft,lowC,downRight,upLeft,upRight,1,z,0,6,6,5,,,,,,,0.5,0.7,practice,z,1,10.14,0,-10.14,0,-7.16,-7.16,7.16,-7.16,-7.16,7.16,7.16,7.16,2,122,0.9715231000009226,,,2,SL,2,F,19,R,2025-06-24_15h24.16.845,RewSL_SL_EEG,
ping,high,midLeft,DOWN,red,r,lowA,Stimuli\red_bar1.png,Stimuli\red_bar1.png,Stimuli\ping.png,midRight,lowB,downLeft,lowC,downRight,upLeft,upRight,1,m,0,7,7,2,,,,,,,0.5,0.7,practice,m,1,-10.14,0,10.14,0,-7.16,-7.16,7.16,-7.16,-7.16,7.16,7.16,7.16,2,212,0.6457429000001866,,,2,SL,2,F,19,R,2025-06-24_15h24.16.845,RewSL_SL_EEG,
ping,lowA,midRight,DOWN,red,l,high,Stimuli\red_bar1.png,Stimuli\red_bar1.png,Stimuli\ping.png,midLeft,lowB,downLeft,lowC,downRight,upLeft,upRight,1,m,0,8,8,6,,,,,,,0.5,0.7,practice,m,1,10.14,0,-10.14,0,-7.16,-7.16,7.16,-7.16,-7.16,7.16,7.16,7.16,2,222,0.5842305999976816,,,2,SL,2,F,19,R,2025-06-24_15h24.16.845,RewSL_SL_EEG,
ping,lowB,downLeft,UP,red,l,lowA,Stimuli\red_bar1.png,Stimuli\red_bar1.png,Stimuli\ping.png,midRight,high,midLeft,lowC,downRight,upLeft,upRight,1,z,0,9,9,8,,,,,,,0.5,0.7,practice,z,1,-7.16,-7.16,10.14,0,-10.14,0,7.16,-7.16,-7.16,7.16,7.16,7.16,2,132,0.7287712000106694,,,2,SL,2,F,19,R,2025-06-24_15h24.16.845,RewSL_SL_EEG,
ping,lowC,downRight,UP,green,l,lowA,Stimuli\green_bar1.png,Stimuli\green_bar1.png,Stimuli\ping.png,midRight,lowB,downLeft,high,midLeft,upLeft,upRight,1,z,0,10,10,13,,,,,,,0.5,0.6,practice,z,1,7.16,-7.16,10.14,0,-7.16,-7.16,-10.14,0,-7.16,7.16,7.16,7.16,2,142,1.0706462999951327,,,2,SL,2,F,19,R,2025-06-24_15h24.16.845,RewSL_SL_EEG,
ping,lowB,downLeft,UP,green,l,lowA,Stimuli\green_bar1.png,Stimuli\green_bar1.png,Stimuli\ping.png,midRight,high,midLeft,lowC,downRight,upLeft,upRight,1,z,0,11,11,9,,,,,,,0.5,0.7,practice,z,1,-7.16,-7.16,10.14,0,-10.14,0,7.16,-7.16,-7.16,7.16,7.16,7.16,2,132,0.8299104000034276,,,2,SL,2,F,19,R,2025-06-24_15h24.16.845,RewSL_SL_EEG,
ping,lowA,midRight,UP,red,l,high,Stimuli\red_bar1.png,Stimuli\red_bar1.png,Stimuli\ping.png,midLeft,lowB,downLeft,lowC,downRight,upLeft,upRight,1,z,0,12,12,4,,,,,,,0.4,0.6,practice,z,1,10.14,0,-10.14,0,-7.16,-7.16,7.16,-7.16,-7.16,7.16,7.16,7.16,2,122,0.6709035000094445,,,2,SL,2,F,19,R,2025-06-24_15h24.16.845,RewSL_SL_EEG,
ping,high,midLeft,DOWN,green,r,lowA,Stimuli\green_bar1.png,Stimuli\green_bar1.png,Stimuli\ping.png,midRight,lowB,downLeft,lowC,downRight,upLeft,upRight,1,m,0,13,13,3,,,,,,,0.5,0.6,practice,m,1,-10.14,0,10.14,0,-7.16,-7.16,7.16,-7.16,-7.16,7.16,7.16,7.16,2,212,0.7377020999992965,,,2,SL,2,F,19,R,2025-06-24_15h24.16.845,RewSL_SL_EEG,
ping,lowB,downLeft,DOWN,red,l,lowA,Stimuli\red_bar1.png,Stimuli\red_bar1.png,Stimuli\ping.png,midRight,high,midLeft,lowC,downRight,upLeft,upRight,1,m,0,14,14,10,,,,,,,0.5,0.7,practice,m,1,-7.16,-7.16,10.14,0,-10.14,0,7.16,-7.16,-7.16,7.16,7.16,7.16,2,232,0.8205438000004506,,,2,SL,2,F,19,R,2025-06-24_15h24.16.845,RewSL_SL_EEG,
ping,lowC,downRight,DOWN,red,l,lowA,Stimuli\red_bar1.png,Stimuli\red_bar1.png,Stimuli\ping.png,midRight,lowB,downLeft,high,midLeft,upLeft,upRight,1,m,0,15,15,14,,,,,,,0.4,0.8,practice,m,1,7.16,-7.16,10.14,0,-7.16,-7.16,-10.14,0,-7.16,7.16,7.16,7.16,2,242,0.6715136999991955,,,2,SL,2,F,19,R,2025-06-24_15h24.16.845,RewSL_SL_EEG,
ping,high,midRight,UP,green,l,lowA,Stimuli\green_bar1.png,Stimuli\green_bar1.png,Stimuli\ping.png,midLeft,lowB,downRight,lowC,downLeft,upLeft,upRight,2,z,,,,,0,0,0,49,,,0.5,0.7,exp,z,1,10.14,0,-10.14,0,7.16,-7.16,-7.16,-7.16,-7.16,7.16,7.16,7.16,4,124,1.1865974000102142,0,1,2,SL,2,F,19,R,2025-06-24_15h24.16.845,RewSL_SL_EEG,
ping,lowA,midLeft,DOWN,red,r,high,Stimuli\red_bar1.png,Stimuli\red_bar1.png,Stimuli\ping.png,midRight,lowB,downRight,lowC,downLeft,upLeft,upRight,2,m,,,,,0,1,1,62,,,0.4,0.7,exp,m,1,-10.14,0,10.14,0,7.16,-7.16,-7.16,-7.16,-7.16,7.16,7.16,7.16,4,214,0.8203783999924781,1,2,2,SL,2,F,19,R,2025-06-24_15h24.16.845,RewSL_SL_EEG,
ping,high,midRight,UP,green,l,lowA,Stimuli\green_bar1.png,Stimuli\green_bar1.png,Stimuli\ping.png,midLeft,lowB,downRight,lowC,downLeft,upLeft,upRight,2,z,,,,,0,2,2,25,,,0.6,0.7,exp,m,0,10.14,0,-10.14,0,7.16,-7.16,-7.16,-7.16,-7.16,7.16,7.16,7.16,4,124,1.128974899998866,2,3,2,SL,2,F,19,R,2025-06-24_15h24.16.845,RewSL_SL_EEG,
ping,high,midRight,DOWN,green,l,lowA,Stimuli\green_bar1.png,Stimuli\green_bar1.png,Stimuli\ping.png,midLeft,lowB,downRight,lowC,downLeft,upLeft,upRight,2,m,,,,,0,3,3,43,,,0.5,0.7,exp,None,0,10.14,0,-10.14,0,7.16,-7.16,-7.16,-7.16,-7.16,7.16,7.16,7.16,4,224,,3,4,2,SL,2,F,19,R,2025-06-24_15h24.16.845,RewSL_SL_EEG,
ping,high,midRight,DOWN,green,r,lowA,Stimuli\green_bar1.png,Stimuli\green_bar1.png,Stimuli\ping.png,midLeft,lowB,downRight,lowC,downLeft,upLeft,upRight,2,m,,,,,0,4,4,39,,,0.4,0.8,exp,m,1,10.14,0,-10.14,0,7.16,-7.16,-7.16,-7.16,-7.16,7.16,7.16,7.16,4,224,0.780078700001468,4,5,2,SL,2,F,19,R,2025-06-24_15h24.16.845,RewSL_SL_EEG,
ping,high,midRight,DOWN,green,r,lowA,Stimuli\green_bar1.png,Stimuli\green_bar1.png,Stimuli\ping.png,midLeft,lowB,downRight,lowC,downLeft,upLeft,upRight,2,m,,,,,0,5,5,7,,,0.5,0.6,exp,m,1,10.14,0,-10.14,0,7.16,-7.16,-7.16,-7.16,-7.16,7.16,7.16,7.16,4,224,0.8638986000005389,5,6,2,SL,2,F,19,R,2025-06-24_15h24.16.845,RewSL_SL_EEG,
ping,lowA,midLeft,UP,red,l,high,Stimuli\red_bar1.png,Stimuli\red_bar1.png,Stimuli\ping.png,midRight,lowB,downRight,lowC,downLeft,upLeft,upRight,2,z,,,,,0,6,6,64,,,0.5,0.7,exp,z,1,-10.14,0,10.14,0,7.16,-7.16,-7.16,-7.16,-7.16,7.16,7.16,7.16,4,114,0.6382583000086015,6,7,2,SL,2,F,19,R,2025-06-24_15h24.16.845,RewSL_SL_EEG,
ping,high,midRight,UP,red,l,lowA,Stimuli\red_bar1.png,Stimuli\red_bar1.png,Stimuli\ping.png,midLeft,lowB,downRight,lowC,downLeft,upLeft,upRight,2,z,,,,,0,7,7,0,,,0.5,0.7,exp,z,1,10.14,0,-10.14,0,7.16,-7.16,-7.16,-7.16,-7.16,7.16,7.16,7.16,4,124,0.6688629999989644,7,8,2,SL,2,F,19,R,2025-06-24_15h24.16.845,RewSL_SL_EEG,
ping,lowB,downRight,DOWN,green,l,lowA,Stimuli\green_bar1.png,Stimuli\green_bar1.png,Stimuli\ping.png,midLeft,high,midRight,lowC,downLeft,upLeft,upRight,2,m,,,,,0,8,8,75,,,0.6,0.6,exp,m,1,7.16,-7.16,-10.14,0,10.14,0,-7.16,-7.16,-7.16,7.16,7.16,7.16,4,244,0.9027732000104152,8,9,2,SL,2,F,19,R,2025-06-24_15h24.16.845,RewSL_SL_EEG,
ping,high,midRight,UP,red,l,lowA,Stimuli\red_bar1.png,Stimuli\red_bar1.png,Stimuli\ping.png,midLeft,lowB,downRight,lowC,downLeft,upLeft,upRight,2,z,,,,,0,9,9,24,,,0.4,0.6,exp,z,1,10.14,0,-10.14,0,7.16,-7.16,-7.16,-7.16,-7.16,7.16,7.16,7.16,4,124,0.688966600006097,9,10,2,SL,2,F,19,R,2025-06-24_15h24.16.845,RewSL_SL_EEG,
ping,high,midRight,DOWN,red,l,lowA,Stimuli\red_bar1.png,Stimuli\red_bar1.png,Stimuli\ping.png,midLeft,lowB,downRight,lowC,downLeft,upLeft,upRight,2,m,,,,,0,10,10,26,,,0.4,0.7,exp,m,1,10.14,0,-10.14,0,7.16,-7.16,-7.16,-7.16,-7.16,7.16,7.16,7.16,4,224,0.7129400999983773,10,11,2,SL,2,F,19,R,2025-06-24_15h24.16.845,RewSL_SL_EEG,
ping,lowA,midLeft,UP,green,r,high,Stimuli\green_bar1.png,Stimuli\green_bar1.png,Stimuli\ping.png,midRight,lowB,downRight,lowC,downLeft,upLeft,upRight,2,z,,,,,0,11,11,61,,,0.5,0.6,exp,z,1,-10.14,0,10.14,0,7.16,-7.16,-7.16,-7.16,-7.16,7.16,7.16,7.16,4,114,0.8791515999910189,11,12,2,SL,2,F,19,R,2025-06-24_15h24.16.845,RewSL_SL_EEG,
ping,high,midRight,DOWN,green,r,lowA,Stimuli\green_bar1.png,Stimuli\green_bar1.png,Stimuli\ping.png,midLeft,lowB,downRight,lowC,downLeft,upLeft,upRight,2,m,,,,,0,12,12,31,,,0.6,0.8,exp,None,0,10.14,0,-10.14,0,7.16,-7.16,-7.16,-7.16,-7.16,7.16,7.16,7.16,4,224,,12,13,2,SL,2,F,19,R,2025-06-24_15h24.16.845,RewSL_SL_EEG,
ping,high,midRight,UP,red,l,lowA,Stimuli\red_bar1.png,Stimuli\red_bar1.png,Stimuli\ping.png,midLeft,lowB,downRight,lowC,downLeft,upLeft,upRight,2,z,,,,,0,13,13,32,,,0.6,0.6,exp,z,1,10.14,0,-10.14,0,7.16,-7.16,-7.16,-7.16,-7.16,7.16,7.16,7.16,4,124,0.6791743000067072,13,14,2,SL,2,F,19,R,2025-06-24_15h24.16.845,RewSL_SL_EEG,
ping,high,midRight,DOWN,green,l,lowA,Stimuli\green_bar1.png,Stimuli\green_bar1.png,Stimuli\ping.png,midLeft,lowB,downRight,lowC,downLeft,upLeft,upRight,2,m,,,,,0,14,14,35,,,0.5,0.6,exp,m,1,10.14,0,-10.14,0,7.16,-7.16,-7.16,-7.16,-7.16,7.16,7.16,7.16,4,224,0.9121627999993507,14,15,2,SL,2,F,19,R,2025-06-24_15h24.16.845,RewSL_SL_EEG,
ping,high,midRight,DOWN,red,r,lowA,Stimuli\red_bar1.png,Stimuli\red_bar1.png,Stimuli\ping.png,midLeft,lowB,downRight,lowC,downLeft,upLeft,upRight,2,m,,,,,0,15,15,46,,,0.4,0.7,exp,m,1,10.14,0,-10.14,0,7.16,-7.16,-7.16,-7.16,-7.16,7.16,7.16,7.16,4,224,1.0130347999947844,15,16,2,SL,2,F,19,R,2025-06-24_15h24.16.845,RewSL_SL_EEG,
ping,lowA,midLeft,UP,red,l,high,Stimuli\red_bar1.png,Stimuli\red_bar1.png,Stimuli\ping.png,midRight,lowB,downRight,lowC,downLeft,upLeft,upRight,2,z,,,,,0,16,16,56,,,0.6,0.8,exp,z,1,-10.14,0,10.14,0,7.16,-7.16,-7.16,-7.16,-7.16,7.16,7.16,7.16,4,114,0.6466193000087515,16,17,2,SL,2,F,19,R,2025-06-24_15h24.16.845,RewSL_SL_EEG,
ping,lowB,downRight,DOWN,red,l,lowA,Stimuli\red_bar1.png,Stimuli\red_bar1.png,Stimuli\ping.png,midLeft,high,midRight,lowC,downLeft,upLeft,upRight,2,m,,,,,0,17,17,74,,,0.4,0.6,exp,m,1,7.16,-7.16,-10.14,0,10.14,0,-7.16,-7.16,-7.16,7.16,7.16,7.16,4,244,0.7718227000004845,17,18,2,SL,2,F,19,R,2025-06-24_15h24.16.845,RewSL_SL_EEG,
ping,high,midRight,UP,green,r,lowA,Stimuli\green_bar1.png,Stimuli\green_bar1.png,Stimuli\ping.png,midLeft,lowB,downRight,lowC,downLeft,upLeft,upRight,2,z,,,,,0,18,18,37,,,0.4,0.7,exp,z,1,10.14,0,-10.14,0,7.16,-7.16,-7.16,-7.16,-7.16,7.16,7.16,7.16,4,124,0.7043628999963403,18,19,2,SL,2,F,19,R,2025-06-24_15h24.16.845,RewSL_SL_EEG,
ping,lowB,downRight,UP,red,l,lowA,Stimuli\red_bar1.png,Stimuli\red_bar1.png,Stimuli\ping.png,midLeft,high,midRight,lowC,downLeft,upLeft,upRight,2,z,,,,,0,19,19,80,,,0.4,0.7,exp,z,1,7.16,-7.16,-10.14,0,10.14,0,-7.16,-7.16,-7.16,7.16,7.16,7.16,4,144,0.7126722000102745,19,20,2,SL,2,F,19,R,2025-06-24_15h24.16.845,RewSL_SL_EEG,
ping,high,midRight,UP,red,r,lowA,Stimuli\red_bar1.png,Stimuli\red_bar1.png,Stimuli\ping.png,midLeft,lowB,downRight,lowC,downLeft,upLeft,upRight,2,z,,,,,0,20,20,36,,,0.5,0.7,exp,z,1,10.14,0,-10.14,0,7.16,-7.16,-7.16,-7.16,-7.16,7.16,7.16,7.16,4,124,0.7017358000011882,20,21,2,SL,2,F,19,R,2025-06-24_15h24.16.845,RewSL_SL_EEG,
ping,high,midRight,DOWN,red,r,lowA,Stimuli\red_bar1.png,Stimuli\red_bar1.png,Stimuli\ping.png,midLeft,lowB,downRight,lowC,downLeft,upLeft,upRight,2,m,,,,,0,21,21,22,,,0.4,0.8,exp,m,1,10.14,0,-10.14,0,7.16,-7.16,-7.16,-7.16,-7.16,7.16,7.16,7.16,4,224,0.5136090000014519,21,22,2,SL,2,F,19,R,2025-06-24_15h24.16.845,RewSL_SL_EEG,
ping,lowB,downRight,UP,red,l,lowA,Stimuli\red_bar1.png,Stimuli\red_bar1.png,Stimuli\ping.png,midLeft,high,midRight,lowC,downLeft,upLeft,upRight,2,z,,,,,0,22,22,72,,,0.4,0.7,exp,z,1,7.16,-7.16,-10.14,0,10.14,0,-7.16,-7.16,-7.16,7.16,7.16,7.16,4,144,0.8130198999861022,22,23,2,SL,2,F,19,R,2025-06-24_15h24.16.845,RewSL_SL_EEG,
ping,high,midRight,DOWN,red,l,lowA,Stimuli\red_bar1.png,Stimuli\red_bar1.png,Stimuli\ping.png,midLeft,lowB,downRight,lowC,downLeft,upLeft,upRight,2,m,,,,,0,23,23,34,,,0.6,0.7,exp,m,1,10.14,0,-10.14,0,7.16,-7.16,-7.16,-7.16,-7.16,7.16,7.16,7.16,4,224,0.6476611999969464,23,24,2,SL,2,F,19,R,2025-06-24_15h24.16.845,RewSL_SL_EEG,
ping,lowA,midLeft,UP,green,l,high,Stimuli\green_bar1.png,Stimuli\green_bar1.png,Stimuli\ping.png,midRight,lowB,downRight,lowC,downLeft,upLeft,upRight,2,z,,,,,0,24,24,65,,,0.6,0.7,exp,z,1,-10.14,0,10.14,0,7.16,-7.16,-7.16,-7.16,-7.16,7.16,7.16,7.16,4,114,0.8371155000058934,24,25,2,SL,2,F,19,R,2025-06-24_15h24.16.845,RewSL_SL_EEG,
ping,lowC,downLeft,DOWN,green,l,lowA,Stimuli\green_bar1.png,Stimuli\green_bar1.png,Stimuli\ping.png,midLeft,lowB,downRight,high,midRight,upLeft,upRight,2,m,,,,,0,25,25,91,,,0.6,0.7,exp,m,1,-7.16,-7.16,-10.14,0,7.16,-7.16,10.14,0,-7.16,7.16,7.16,7.16,4,234,0.854882900006487,25,26,2,SL,2,F,19,R,2025-06-24_15h24.16.845,RewSL_SL_EEG,
ping,high,midRight,UP,red,r,lowA,Stimuli\red_bar1.png,Stimuli\red_bar1.png,Stimuli\ping.png,midLeft,lowB,downRight,lowC,downLeft,upLeft,upRight,2,z,,,,,0,26,26,28,,,0.6,0.7,exp,z,1,10.14,0,-10.14,0,7.16,-7.16,-7.16,-7.16,-7.16,7.16,7.16,7.16,4,124,0.6628089000005275,26,27,2,SL,2,F,19,R,2025-06-24_15h24.16.845,RewSL_SL_EEG,
ping,lowC,downLeft,UP,green,l,lowA,Stimuli\green_bar1.png,Stimuli\green_bar1.png,Stimuli\ping.png,midLeft,lowB,downRight,high,midRight,upLeft,upRight,2,z,,,,,0,27,27,97,,,0.5,0.7,exp,z,1,-7.16,-7.16,-10.14,0,7.16,-7.16,10.14,0,-7.16,7.16,7.16,7.16,4,134,0.6127992999972776,27,28,2,SL,2,F,19,R,2025-06-24_15h24.16.845,RewSL_SL_EEG,
ping,high,midRight,DOWN,red,r,lowA,Stimuli\red_bar1.png,Stimuli\red_bar1.png,Stimuli\ping.png,midLeft,lowB,downRight,lowC,downLeft,upLeft,upRight,2,m,,,,,0,28,28,30,,,0.5,0.8,exp,m,1,10.14,0,-10.14,0,7.16,-7.16,-7.16,-7.16,-7.16,7.16,7.16,7.16,4,224,0.6706944000034127,28,29,2,SL,2,F,19,R,2025-06-24_15h24.16.845,RewSL_SL_EEG,
ping,high,midRight,UP,red,l,lowA,Stimuli\red_bar1.png,Stimuli\red_bar1.png,Stimuli\ping.png,midLeft,lowB,downRight,lowC,downLeft,upLeft,upRight,2,z,,,,,0,29,29,8,,,0.5,0.6,exp,z,1,10.14,0,-10.14,0,7.16,-7.16,-7.16,-7.16,-7.16,7.16,7.16,7.16,4,124,0.603341600013664,29,30,2,SL,2,F,19,R,2025-06-24_15h24.16.845,RewSL_SL_EEG,
ping,high,midRight,UP,red,l,lowA,Stimuli\red_bar1.png,Stimuli\red_bar1.png,Stimuli\ping.png,midLeft,lowB,downRight,lowC,downLeft,upLeft,upRight,2,z,,,,,0,30,30,16,,,0.4,0.7,exp,z,1,10.14,0,-10.14,0,7.16,-7.16,-7.16,-7.16,-7.16,7.16,7.16,7.16,4,124,0.6765092999994522,30,31,2,SL,2,F,19,R,2025-06-24_15h24.16.845,RewSL_SL_EEG,
ping,high,midRight,DOWN,green,r,lowA,Stimuli\green_bar1.png,Stimuli\green_bar1.png,Stimuli\ping.png,midLeft,lowB,downRight,lowC,downLeft,upLeft,upRight,2,m,,,,,0,31,31,23,,,0.4,0.6,exp,None,0,10.14,0,-10.14,0,7.16,-7.16,-7.16,-7.16,-7.16,7.16,7.16,7.16,4,224,,31,32,2,SL,2,F,19,R,2025-06-24_15h24.16.845,RewSL_SL_EEG,
ping,lowA,midLeft,DOWN,red,l,high,Stimuli\red_bar1.png,Stimuli\red_bar1.png,Stimuli\ping.png,midRight,lowB,downRight,lowC,downLeft,upLeft,upRight,2,m,,,,,0,32,32,66,,,0.4,0.8,exp,m,1,-10.14,0,10.14,0,7.16,-7.16,-7.16,-7.16,-7.16,7.16,7.16,7.16,4,214,1.2294403000123566,32,33,2,SL,2,F,19,R,2025-06-24_15h24.16.845,RewSL_SL_EEG,
ping,lowA,midLeft,UP,green,r,high,Stimuli\green_bar1.png,Stimuli\green_bar1.png,Stimuli\ping.png,midRight,lowB,downRight,lowC,downLeft,upLeft,upRight,2,z,,,,,0,33,33,53,,,0.6,0.8,exp,z,1,-10.14,0,10.14,0,7.16,-7.16,-7.16,-7.16,-7.16,7.16,7.16,7.16,4,114,0.6475222000008216,33,34,2,SL,2,F,19,R,2025-06-24_15h24.16.845,RewSL_SL_EEG,
ping,high,midRight,UP,green,r,lowA,Stimuli\green_bar1.png,Stimuli\green_bar1.png,Stimuli\ping.png,midLeft,lowB,downRight,lowC,downLeft,upLeft,upRight,2,z,,,,,0,34,34,45,,,0.5,0.6,exp,z,1,10.14,0,-10.14,0,7.16,-7.16,-7.16,-7.16,-7.16,7.16,7.16,7.16,4,124,0.7723409000027459,34,35,2,SL,2,F,19,R,2025-06-24_15h24.16.845,RewSL_SL_EEG,
ping,lowB,downRight,UP,green,r,lowA,Stimuli\green_bar1.png,Stimuli\green_bar1.png,Stimuli\ping.png,midLeft,high,midRight,lowC,downLeft,upLeft,upRight,2,z,,,,,0,35,35,77,,,0.5,0.7,exp,z,1,7.16,-7.16,-10.14,0,10.14,0,-7.16,-7.16,-7.16,7.16,7.16,7.16,4,144,0.8133577999979025,35,36,2,SL,2,F,19,R,2025-06-24_15h24.16.845,RewSL_SL_EEG,
ping,lowC,downLeft,UP,red,l,lowA,Stimuli\red_bar1.png,Stimuli\red_bar1.png,Stimuli\ping.png,midLeft,lowB,downRight,high,midRight,upLeft,upRight,2,z,,,,,0,36,36,88,,,0.5,0.8,exp,z,1,-7.16,-7.16,-10.14,0,7.16,-7.16,10.14,0,-7.16,7.16,7.16,7.16,4,134,1.0156558000016958,36,37,2,SL,2,F,19,R,2025-06-24_15h24.16.845,RewSL_SL_EEG,
ping,lowA,midLeft,DOWN,green,l,high,Stimuli\green_bar1.png,Stimuli\green_bar1.png,Stimuli\ping.png,midRight,lowB,downRight,lowC,downLeft,upLeft,upRight,2,m,,,,,0,37,37,67,,,0.6,0.6,exp,m,1,-10.14,0,10.14,0,7.16,-7.16,-7.16,-7.16,-7.16,7.16,7.16,7.16,4,214,0.6629377000062959,37,38,2,SL,2,F,19,R,2025-06-24_15h24.16.845,RewSL_SL_EEG,
ping,lowB,downRight,DOWN,red,r,lowA,Stimuli\red_bar1.png,Stimuli\red_bar1.png,Stimuli\ping.png,midLeft,high,midRight,lowC,downLeft,upLeft,upRight,2,m,,,,,0,38,38,70,,,0.5,0.7,exp,m,1,7.16,-7.16,-10.14,0,10.14,0,-7.16,-7.16,-7.16,7.16,7.16,7.16,4,244,0.6873010999988765,38,39,2,SL,2,F,19,R,2025-06-24_15h24.16.845,RewSL_SL_EEG,
ping,lowA,midLeft,DOWN,green,r,high,Stimuli\green_bar1.png,Stimuli\green_bar1.png,Stimuli\ping.png,midRight,lowB,downRight,lowC,downLeft,upLeft,upRight,2,m,,,,,0,39,39,63,,,0.6,0.7,exp,m,1,-10.14,0,10.14,0,7.16,-7.16,-7.16,-7.16,-7.16,7.16,7.16,7.16,4,214,1.070962400001008,39,40,2,SL,2,F,19,R,2025-06-24_15h24.16.845,RewSL_SL_EEG,
ping,lowB,downRight,DOWN,red,r,lowA,Stimuli\red_bar1.png,Stimuli\red_bar1.png,Stimuli\ping.png,midLeft,high,midRight,lowC,downLeft,upLeft,upRight,2,m,,,,,0,40,40,78,,,0.5,0.7,exp,m,1,7.16,-7.16,-10.14,0,10.14,0,-7.16,-7.16,-7.16,7.16,7.16,7.16,4,244,0.7793606000050204,40,41,2,SL,2,F,19,R,2025-06-24_15h24.16.845,RewSL_SL_EEG,
ping,high,midRight,UP,green,r,lowA,Stimuli\green_bar1.png,Stimuli\green_bar1.png,Stimuli\ping.png,midLeft,lowB,downRight,lowC,downLeft,upLeft,upRight,2,z,,,,,0,41,41,13,,,0.5,0.8,exp,z,1,10.14,0,-10.14,0,7.16,-7.16,-7.16,-7.16,-7.16,7.16,7.16,7.16,4,124,0.7958802000066498,41,42,2,SL,2,F,19,R,2025-06-24_15h24.16.845,RewSL_SL_EEG,
ping,lowC,downLeft,UP,red,r,lowA,Stimuli\red_bar1.png,Stimuli\red_bar1.png,Stimuli\ping.png,midLeft,lowB,downRight,high,midRight,upLeft,upRight,2,z,,,,,0,42,42,92,,,0.5,0.8,exp,z,1,-7.16,-7.16,-10.14,0,7.16,-7.16,10.14,0,-7.16,7.16,7.16,7.16,4,134,0.8043442000052892,42,43,2,SL,2,F,19,R,2025-06-24_15h24.16.845,RewSL_SL_EEG,
ping,lowB,downRight,DOWN,green,r,lowA,Stimuli\green_bar1.png,Stimuli\green_bar1.png,Stimuli\ping.png,midLeft,high,midRight,lowC,downLeft,upLeft,upRight,2,m,,,,,0,43,43,71,,,0.5,0.8,exp,m,1,7.16,-7.16,-10.14,0,10.14,0,-7.16,-7.16,-7.16,7.16,7.16,7.16,4,244,0.6707192000030773,43,44,2,SL,2,F,19,R,2025-06-24_15h24.16.845,RewSL_SL_EEG,
ping,high,midRight,UP,green,l,lowA,Stimuli\green_bar1.png,Stimuli\green_bar1.png,Stimuli\ping.png,midLeft,lowB,downRight,lowC,downLeft,upLeft,upRight,2,z,,,,,0,44,44,41,,,0.4,0.6,exp,z,1,10.14,0,-10.14,0,7.16,-7.16,-7.16,-7.16,-7.16,7.16,7.16,7.16,4,124,0.7056252000038512,44,45,2,SL,2,F,19,R,2025-06-24_15h24.16.845,RewSL_SL_EEG,
ping,high,midRight,DOWN,red,r,lowA,Stimuli\red_bar1.png,Stimuli\red_bar1.png,Stimuli\ping.png,midLeft,lowB,downRight,lowC,downLeft,upLeft,upRight,2,m,,,,,0,45,45,38,,,0.5,0.6,exp,m,1,10.14,0,-10.14,0,7.16,-7.16,-7.16,-7.16,-7.16,7.16,7.16,7.16,4,224,0.6204309000022477,45,46,2,SL,2,F,19,R,2025-06-24_15h24.16.845,RewSL_SL_EEG,
ping,lowC,downLeft,UP,red,l,lowA,Stimuli\red_bar1.png,Stimuli\red_bar1.png,Stimuli\ping.png,midLeft,lowB,downRight,high,midRight,upLeft,upRight,2,z,,,,,0,46,46,96,,,0.4,0.6,exp,z,1,-7.16,-7.16,-10.14,0,7.16,-7.16,10.14,0,-7.16,7.16,7.16,7.16,4,134,0.8296226000093156,46,47,2,SL,2,F,19,R,2025-06-24_15h24.16.845,RewSL_SL_EEG,
ping,high,midRight,UP,green,r,lowA,Stimuli\green_bar1.png,Stimuli\green_bar1.png,Stimuli\ping.png,midLeft,lowB,downRight,lowC,downLeft,upLeft,upRight,2,z,,,,,0,47,47,21,,,0.4,0.8,exp,z,1,10.14,0,-10.14,0,7.16,-7.16,-7.16,-7.16,-7.16,7.16,7.16,7.16,4,124,0.8118449000030523,47,48,2,SL,2,F,19,R,2025-06-24_15h24.16.845,RewSL_SL_EEG,
ping,lowC,downLeft,DOWN,red,l,lowA,Stimuli\red_bar1.png,Stimuli\red_bar1.png,Stimuli\ping.png,midLeft,lowB,downRight,high,midRight,upLeft,upRight,2,m,,,,,0,48,48,90,,,0.4,0.8,exp,m,1,-7.16,-7.16,-10.14,0,7.16,-7.16,10.14,0,-7.16,7.16,7.16,7.16,4,234,0.5624780999933137,48,49,2,SL,2,F,19,R,2025-06-24_15h24.16.845,RewSL_SL_EEG,
ping,high,midRight,UP,red,r,lowA,Stimuli\red_bar1.png,Stimuli\red_bar1.png,Stimuli\ping.png,midLeft,lowB,downRight,lowC,downLeft,upLeft,upRight,2,z,,,,,0,49,49,12,,,0.6,0.6,exp,z,1,10.14,0,-10.14,0,7.16,-7.16,-7.16,-7.16,-7.16,7.16,7.16,7.16,4,124,0.6128429999953369,49,50,2,SL,2,F,19,R,2025-06-24_15h24.16.845,RewSL_SL_EEG,
ping,high,midRight,UP,red,l,lowA,Stimuli\red_bar1.png,Stimuli\red_bar1.png,Stimuli\ping.png,midLeft,lowB,downRight,lowC,downLeft,upLeft,upRight,2,z,,,,,0,50,50,40,,,0.4,0.7,exp,z,1,10.14,0,-10.14,0,7.16,-7.16,-7.16,-7.16,-7.16,7.16,7.16,7.16,4,124,0.5552016000001458,50,51,2,SL,2,F,19,R,2025-06-24_15h24.16.845,RewSL_SL_EEG,
ping,lowB,downRight,UP,green,l,lowA,Stimuli\green_bar1.png,Stimuli\green_bar1.png,Stimuli\ping.png,midLeft,high,midRight,lowC,downLeft,upLeft,upRight,2,z,,,,,0,51,51,73,,,0.5,0.8,exp,z,1,7.16,-7.16,-10.14,0,10.14,0,-7.16,-7.16,-7.16,7.16,7.16,7.16,4,144,0.6626544999890029,51,52,2,SL,2,F,19,R,2025-06-24_15h24.16.845,RewSL_SL_EEG,
ping,high,midRight,DOWN,red,l,lowA,Stimuli\red_bar1.png,Stimuli\red_bar1.png,Stimuli\ping.png,midLeft,lowB,downRight,lowC,downLeft,upLeft,upRight,2,m,,,,,0,52,52,10,,,0.4,0.7,exp,m,1,10.14,0,-10.14,0,7.16,-7.16,-7.16,-7.16,-7.16,7.16,7.16,7.16,4,224,0.6285110999888275,52,53,2,SL,2,F,19,R,2025-06-24_15h24.16.845,RewSL_SL_EEG,
ping,high,midRight,DOWN,red,l,lowA,Stimuli\red_bar1.png,Stimuli\red_bar1.png,Stimuli\ping.png,midLeft,lowB,downRight,lowC,downLeft,upLeft,upRight,2,m,,,,,0,53,53,50,,,0.4,0.8,exp,m,1,10.14,0,-10.14,0,7.16,-7.16,-7.16,-7.16,-7.16,7.16,7.16,7.16,4,224,0.5952552999951877,53,54,2,SL,2,F,19,R,2025-06-24_15h24.16.845,RewSL_SL_EEG,
ping,high,midRight,UP,green,l,lowA,Stimuli\green_bar1.png,Stimuli\green_bar1.png,Stimuli\ping.png,midLeft,lowB,downRight,lowC,downLeft,upLeft,upRight,2,z,,,,,0,54,54,9,,,0.5,0.7,exp,z,1,10.14,0,-10.14,0,7.16,-7.16,-7.16,-7.16,-7.16,7.16,7.16,7.16,4,124,0.7621906999993371,54,55,2,SL,2,F,19,R,2025-06-24_15h24.16.845,RewSL_SL_EEG,
ping,high,midRight,UP,green,l,lowA,Stimuli\green_bar1.png,Stimuli\green_bar1.png,Stimuli\ping.png,midLeft,lowB,downRight,lowC,downLeft,upLeft,upRight,2,z,,,,,0,55,55,17,,,0.5,0.7,exp,m,0,10.14,0,-10.14,0,7.16,-7.16,-7.16,-7.16,-7.16,7.16,7.16,7.16,4,124,0.7796984999877168,55,56,2,SL,2,F,19,R,2025-06-24_15h24.16.845,RewSL_SL_EEG,
ping,high,midRight,UP,red,l,lowA,Stimuli\red_bar1.png,Stimuli\red_bar1.png,Stimuli\ping.png,midLeft,lowB,downRight,lowC,downLeft,upLeft,upRight,2,z,,,,,0,56,56,48,,,0.6,0.7,exp,z,1,10.14,0,-10.14,0,7.16,-7.16,-7.16,-7.16,-7.16,7.16,7.16,7.16,4,124,0.5706055000046035,56,57,2,SL,2,F,19,R,2025-06-24_15h24.16.845,RewSL_SL_EEG,
ping,lowC,downLeft,UP,green,r,lowA,Stimuli\green_bar1.png,Stimuli\green_bar1.png,Stimuli\ping.png,midLeft,lowB,downRight,high,midRight,upLeft,upRight,2,z,,,,,0,57,57,85,,,0.5,0.7,exp,z,1,-7.16,-7.16,-10.14,0,7.16,-7.16,10.14,0,-7.16,7.16,7.16,7.16,4,134,0.7201361000043107,57,58,2,SL,2,F,19,R,2025-06-24_15h24.16.845,RewSL_SL_EEG,
ping,lowA,midLeft,UP,red,r,high,Stimuli\red_bar1.png,Stimuli\red_bar1.png,Stimuli\ping.png,midRight,lowB,downRight,lowC,downLeft,upLeft,upRight,2,z,,,,,0,58,58,52,,,0.5,0.7,exp,None,0,-10.14,0,10.14,0,7.16,-7.16,-7.16,-7.16,-7.16,7.16,7.16,7.16,4,114,,58,59,2,SL,2,F,19,R,2025-06-24_15h24.16.845,RewSL_SL_EEG,
ping,high,midRight,DOWN,red,r,lowA,Stimuli\red_bar1.png,Stimuli\red_bar1.png,Stimuli\ping.png,midLeft,lowB,downRight,lowC,downLeft,upLeft,upRight,2,m,,,,,0,59,59,14,,,0.6,0.7,exp,m,1,10.14,0,-10.14,0,7.16,-7.16,-7.16,-7.16,-7.16,7.16,7.16,7.16,4,224,0.6627833999955328,59,60,2,SL,2,F,19,R,2025-06-24_15h24.16.845,RewSL_SL_EEG,
ping,high,midRight,UP,red,r,lowA,Stimuli\red_bar1.png,Stimuli\red_bar1.png,Stimuli\ping.png,midLeft,lowB,downRight,lowC,downLeft,upLeft,upRight,2,z,,,,,0,60,60,4,,,0.5,0.6,exp,z,1,10.14,0,-10.14,0,7.16,-7.16,-7.16,-7.16,-7.16,7.16,7.16,7.16,4,124,0.7387785000028089,60,61,2,SL,2,F,19,R,2025-06-24_15h24.16.845,RewSL_SL_EEG,
ping,lowA,midLeft,UP,green,l,high,Stimuli\green_bar1.png,Stimuli\green_bar1.png,Stimuli\ping.png,midRight,lowB,downRight,lowC,downLeft,upLeft,upRight,2,z,,,,,0,61,61,57,,,0.6,0.7,exp,z,1,-10.14,0,10.14,0,7.16,-7.16,-7.16,-7.16,-7.16,7.16,7.16,7.16,4,114,0.7532443000091007,61,62,2,SL,2,F,19,R,2025-06-24_15h24.16.845,RewSL_SL_EEG,
ping,high,midRight,DOWN,red,r,lowA,Stimuli\red_bar1.png,Stimuli\red_bar1.png,Stimuli\ping.png,midLeft,lowB,downRight,lowC,downLeft,upLeft,upRight,2,m,,,,,0,62,62,6,,,0.6,0.6,exp,m,1,10.14,0,-10.14,0,7.16,-7.16,-7.16,-7.16,-7.16,7.16,7.16,7.16,4,224,0.6208278999984032,62,63,2,SL,2,F,19,R,2025-06-24_15h24.16.845,RewSL_SL_EEG,
ping,lowC,downLeft,DOWN,red,r,lowA,Stimuli\red_bar1.png,Stimuli\red_bar1.png,Stimuli\ping.png,midLeft,lowB,downRight,high,midRight,upLeft,upRight,2,m,,,,,0,63,63,94,,,0.6,0.7,exp,m,1,-7.16,-7.16,-10.14,0,7.16,-7.16,10.14,0,-7.16,7.16,7.16,7.16,4,234,0.7469138000014937,63,64,2,SL,2,F,19,R,2025-06-24_15h24.16.845,RewSL_SL_EEG,
ping,high,midRight,DOWN,green,r,lowA,Stimuli\green_bar1.png,Stimuli\green_bar1.png,Stimuli\ping.png,midLeft,lowB,downRight,lowC,downLeft,upLeft,upRight,2,m,,,,,0,64,64,15,,,0.4,0.8,exp,m,1,10.14,0,-10.14,0,7.16,-7.16,-7.16,-7.16,-7.16,7.16,7.16,7.16,4,224,0.7210001000057673,64,65,2,SL,2,F,19,R,2025-06-24_15h24.16.845,RewSL_SL_EEG,
ping,lowA,midLeft,DOWN,red,r,high,Stimuli\red_bar1.png,Stimuli\red_bar1.png,Stimuli\ping.png,midRight,lowB,downRight,lowC,downLeft,upLeft,upRight,2,m,,,,,0,65,65,54,,,0.4,0.7,exp,m,1,-10.14,0,10.14,0,7.16,-7.16,-7.16,-7.16,-7.16,7.16,7.16,7.16,4,214,0.5634408000041731,65,66,2,SL,2,F,19,R,2025-06-24_15h24.16.845,RewSL_SL_EEG,
ping,lowC,downLeft,UP,green,r,lowA,Stimuli\green_bar1.png,Stimuli\green_bar1.png,Stimuli\ping.png,midLeft,lowB,downRight,high,midRight,upLeft,upRight,2,z,,,,,0,66,66,93,,,0.4,0.7,exp,z,1,-7.16,-7.16,-10.14,0,7.16,-7.16,10.14,0,-7.16,7.16,7.16,7.16,4,134,0.6041185000067344,66,67,2,SL,2,F,19,R,2025-06-24_15h24.16.845,RewSL_SL_EEG,
ping,high,midRight,DOWN,green,l,lowA,Stimuli\green_bar1.png,Stimuli\green_bar1.png,Stimuli\ping.png,midLeft,lowB,downRight,lowC,downLeft,upLeft,upRight,2,m,,,,,0,67,67,19,,,0.4,0.6,exp,m,1,10.14,0,-10.14,0,7.16,-7.16,-7.16,-7.16,-7.16,7.16,7.16,7.16,4,224,0.8136092999920947,67,68,2,SL,2,F,19,R,2025-06-24_15h24.16.845,RewSL_SL_EEG,
ping,lowB,downRight,DOWN,green,l,lowA,Stimuli\green_bar1.png,Stimuli\green_bar1.png,Stimuli\ping.png,midLeft,high,midRight,lowC,downLeft,upLeft,upRight,2,m,,,,,0,68,68,83,,,0.6,0.6,exp,m,1,7.16,-7.16,-10.14,0,10.14,0,-7.16,-7.16,-7.16,7.16,7.16,7.16,4,244,0.6886440999951446,68,69,2,SL,2,F,19,R,2025-06-24_15h24.16.845,RewSL_SL_EEG,
ping,high,midRight,DOWN,green,l,lowA,Stimuli\green_bar1.png,Stimuli\green_bar1.png,Stimuli\ping.png,midLeft,lowB,downRight,lowC,downLeft,upLeft,upRight,2,m,,,,,0,69,69,51,,,0.5,0.6,exp,m,1,10.14,0,-10.14,0,7.16,-7.16,-7.16,-7.16,-7.16,7.16,7.16,7.16,4,224,0.7715004000056069,69,70,2,SL,2,F,19,R,2025-06-24_15h24.16.845,RewSL_SL_EEG,
ping,lowA,midLeft,DOWN,green,r,high,Stimuli\green_bar1.png,Stimuli\green_bar1.png,Stimuli\ping.png,midRight,lowB,downRight,lowC,downLeft,upLeft,upRight,2,m,,,,,0,70,70,55,,,0.5,0.6,exp,m,1,-10.14,0,10.14,0,7.16,-7.16,-7.16,-7.16,-7.16,7.16,7.16,7.16,4,214,0.7716048000002047,70,71,2,SL,2,F,19,R,2025-06-24_15h24.16.845,RewSL_SL_EEG,
ping,lowB,downRight,UP,red,r,lowA,Stimuli\red_bar1.png,Stimuli\red_bar1.png,Stimuli\ping.png,midLeft,high,midRight,lowC,downLeft,upLeft,upRight,2,z,,,,,0,71,71,76,,,0.6,0.8,exp,z,1,7.16,-7.16,-10.14,0,10.14,0,-7.16,-7.16,-7.16,7.16,7.16,7.16,4,144,0.8707875999971293,71,72,2,SL,2,F,19,R,2025-06-24_15h24.16.845,RewSL_SL_EEG,
ping,lowC,downLeft,DOWN,red,l,lowA,Stimuli\red_bar1.png,Stimuli\red_bar1.png,Stimuli\ping.png,midLeft,lowB,downRight,high,midRight,upLeft,upRight,2,m,,,,,0,72,72,98,,,0.6,0.8,exp,m,1,-7.16,-7.16,-10.14,0,7.16,-7.16,10.14,0,-7.16,7.16,7.16,7.16,4,234,0.8234053000051063,72,73,2,SL,2,F,19,R,2025-06-24_15h24.16.845,RewSL_SL_EEG,
ping,high,midRight,DOWN,green,r,lowA,Stimuli\green_bar1.png,Stimuli\green_bar1.png,Stimuli\ping.png,midLeft,lowB,downRight,lowC,downLeft,upLeft,upRight,2,m,,,,,0,73,73,47,,,0.4,0.6,exp,m,1,10.14,0,-10.14,0,7.16,-7.16,-7.16,-7.16,-7.16,7.16,7.16,7.16,4,224,0.712595599994529,73,74,2,SL,2,F,19,R,2025-06-24_15h24.16.845,RewSL_SL_EEG,
ping,lowA,midLeft,DOWN,green,l,high,Stimuli\green_bar1.png,Stimuli\green_bar1.png,Stimuli\ping.png,midRight,lowB,downRight,lowC,downLeft,upLeft,upRight,2,m,,,,,0,74,74,59,,,0.5,0.7,exp,m,1,-10.14,0,10.14,0,7.16,-7.16,-7.16,-7.16,-7.16,7.16,7.16,7.16,4,214,0.605432500000461,74,75,2,SL,2,F,19,R,2025-06-24_15h24.16.845,RewSL_SL_EEG,
ping,lowC,downLeft,DOWN,green,l,lowA,Stimuli\green_bar1.png,Stimuli\green_bar1.png,Stimuli\ping.png,midLeft,lowB,downRight,high,midRight,upLeft,upRight,2,m,,,,,0,75,75,99,,,0.5,0.6,exp,m,1,-7.16,-7.16,-10.14,0,7.16,-7.16,10.14,0,-7.16,7.16,7.16,7.16,4,234,0.9966024999885121,75,76,2,SL,2,F,19,R,2025-06-24_15h24.16.845,RewSL_SL_EEG,
ping,lowC,downLeft,UP,red,r,lowA,Stimuli\red_bar1.png,Stimuli\red_bar1.png,Stimuli\ping.png,midLeft,lowB,downRight,high,midRight,upLeft,upRight,2,z,,,,,0,76,76,84,,,0.6,0.6,exp,z,1,-7.16,-7.16,-10.14,0,7.16,-7.16,10.14,0,-7.16,7.16,7.16,7.16,4,134,0.7059643999964464,76,77,2,SL,2,F,19,R,2025-06-24_15h24.16.845,RewSL_SL_EEG,
ping,high,midRight,UP,red,r,lowA,Stimuli\red_bar1.png,Stimuli\red_bar1.png,Stimuli\ping.png,midLeft,lowB,downRight,lowC,downLeft,upLeft,upRight,2,z,,,,,0,77,77,20,,,0.6,0.6,exp,z,1,10.14,0,-10.14,0,7.16,-7.16,-7.16,-7.16,-7.16,7.16,7.16,7.16,4,124,0.7128020999953151,77,78,2,SL,2,F,19,R,2025-06-24_15h24.16.845,RewSL_SL_EEG,
ping,lowB,downRight,UP,green,r,lowA,Stimuli\green_bar1.png,Stimuli\green_bar1.png,Stimuli\ping.png,midLeft,high,midRight,lowC,downLeft,upLeft,upRight,2,z,,,,,0,78,78,69,,,0.5,0.7,exp,z,1,7.16,-7.16,-10.14,0,10.14,0,-7.16,-7.16,-7.16,7.16,7.16,7.16,4,144,0.7458991000021342,78,79,2,SL,2,F,19,R,2025-06-24_15h24.16.845,RewSL_SL_EEG,
ping,lowA,midLeft,DOWN,red,l,high,Stimuli\red_bar1.png,Stimuli\red_bar1.png,Stimuli\ping.png,midRight,lowB,downRight,lowC,downLeft,upLeft,upRight,2,m,,,,,0,79,79,58,,,0.4,0.6,exp,m,1,-10.14,0,10.14,0,7.16,-7.16,-7.16,-7.16,-7.16,7.16,7.16,7.16,4,214,0.764243700003135,79,80,2,SL,2,F,19,R,2025-06-24_15h24.16.845,RewSL_SL_EEG,
ping,lowB,downRight,UP,green,l,lowA,Stimuli\green_bar1.png,Stimuli\green_bar1.png,Stimuli\ping.png,midLeft,high,midRight,lowC,downLeft,upLeft,upRight,2,z,,,,,0,80,80,81,,,0.4,0.6,exp,z,1,7.16,-7.16,-10.14,0,10.14,0,-7.16,-7.16,-7.16,7.16,7.16,7.16,4,144,0.6547239999927115,80,81,2,SL,2,F,19,R,2025-06-24_15h24.16.845,RewSL_SL_EEG,
ping,high,midRight,DOWN,green,l,lowA,Stimuli\green_bar1.png,Stimuli\green_bar1.png,Stimuli\ping.png,midLeft,lowB,downRight,lowC,downLeft,upLeft,upRight,2,m,,,,,0,81,81,27,,,0.6,0.8,exp,z,0,10.14,0,-10.14,0,7.16,-7.16,-7.16,-7.16,-7.16,7.16,7.16,7.16,4,224,0.6799860000028275,81,82,2,SL,2,F,19,R,2025-06-24_15h24.16.845,RewSL_SL_EEG,
ping,high,midRight,DOWN,green,l,lowA,Stimuli\green_bar1.png,Stimuli\green_bar1.png,Stimuli\ping.png,midLeft,lowB,downRight,lowC,downLeft,upLeft,upRight,2,m,,,,,0,82,82,3,,,0.6,0.7,exp,m,1,10.14,0,-10.14,0,7.16,-7.16,-7.16,-7.16,-7.16,7.16,7.16,7.16,4,224,0.8468699000077322,82,83,2,SL,2,F,19,R,2025-06-24_15h24.16.845,RewSL_SL_EEG,
ping,lowC,downLeft,DOWN,green,r,lowA,Stimuli\green_bar1.png,Stimuli\green_bar1.png,Stimuli\ping.png,midLeft,lowB,downRight,high,midRight,upLeft,upRight,2,m,,,,,0,83,83,87,,,0.4,0.8,exp,m,1,-7.16,-7.16,-10.14,0,7.16,-7.16,10.14,0,-7.16,7.16,7.16,7.16,4,234,0.7133235999936005,83,84,2,SL,2,F,19,R,2025-06-24_15h24.16.845,RewSL_SL_EEG,
ping,high,midRight,UP,green,l,lowA,Stimuli\green_bar1.png,Stimuli\green_bar1.png,Stimuli\ping.png,midLeft,lowB,downRight,lowC,downLeft,upLeft,upRight,2,z,,,,,0,84,84,1,,,0.5,0.6,exp,z,1,10.14,0,-10.14,0,7.16,-7.16,-7.16,-7.16,-7.16,7.16,7.16,7.16,4,124,0.6057867000054102,84,85,2,SL,2,F,19,R,2025-06-24_15h24.16.845,RewSL_SL_EEG,
ping,high,midRight,DOWN,red,l,lowA,Stimuli\red_bar1.png,Stimuli\red_bar1.png,Stimuli\ping.png,midLeft,lowB,downRight,lowC,downLeft,upLeft,upRight,2,m,,,,,0,85,85,18,,,0.4,0.7,exp,m,1,10.14,0,-10.14,0,7.16,-7.16,-7.16,-7.16,-7.16,7.16,7.16,7.16,4,224,0.47965010000916664,85,86,2,SL,2,F,19,R,2025-06-24_15h24.16.845,RewSL_SL_EEG,
ping,high,midRight,UP,green,r,lowA,Stimuli\green_bar1.png,Stimuli\green_bar1.png,Stimuli\ping.png,midLeft,lowB,downRight,lowC,downLeft,upLeft,upRight,2,z,,,,,0,86,86,5,,,0.4,0.8,exp,z,1,10.14,0,-10.14,0,7.16,-7.16,-7.16,-7.16,-7.16,7.16,7.16,7.16,4,124,0.6529915999999503,86,87,2,SL,2,F,19,R,2025-06-24_15h24.16.845,RewSL_SL_EEG,
ping,lowA,midLeft,UP,red,r,high,Stimuli\red_bar1.png,Stimuli\red_bar1.png,Stimuli\ping.png,midRight,lowB,downRight,lowC,downLeft,upLeft,upRight,2,z,,,,,0,87,87,60,,,0.4,0.7,exp,z,1,-10.14,0,10.14,0,7.16,-7.16,-7.16,-7.16,-7.16,7.16,7.16,7.16,4,114,0.6794794999877922,87,88,2,SL,2,F,19,R,2025-06-24_15h24.16.845,RewSL_SL_EEG,
ping,lowB,downRight,UP,red,r,lowA,Stimuli\red_bar1.png,Stimuli\red_bar1.png,Stimuli\ping.png,midLeft,high,midRight,lowC,downLeft,upLeft,upRight,2,z,,,,,0,88,88,68,,,0.5,0.7,exp,None,0,7.16,-7.16,-10.14,0,10.14,0,-7.16,-7.16,-7.16,7.16,7.16,7.16,4,144,,88,89,2,SL,2,F,19,R,2025-06-24_15h24.16.845,RewSL_SL_EEG,
ping,high,midRight,DOWN,green,l,lowA,Stimuli\green_bar1.png,Stimuli\green_bar1.png,Stimuli\ping.png,midLeft,lowB,downRight,lowC,downLeft,upLeft,upRight,2,m,,,,,0,89,89,11,,,0.5,0.7,exp,m,1,10.14,0,-10.14,0,7.16,-7.16,-7.16,-7.16,-7.16,7.16,7.16,7.16,4,224,0.6537115000101039,89,90,2,SL,2,F,19,R,2025-06-24_15h24.16.845,RewSL_SL_EEG,
ping,lowB,downRight,DOWN,green,r,lowA,Stimuli\green_bar1.png,Stimuli\green_bar1.png,Stimuli\ping.png,midLeft,high,midRight,lowC,downLeft,upLeft,upRight,2,m,,,,,0,90,90,79,,,0.6,0.6,exp,m,1,7.16,-7.16,-10.14,0,10.14,0,-7.16,-7.16,-7.16,7.16,7.16,7.16,4,244,0.6968546999996761,90,91,2,SL,2,F,19,R,2025-06-24_15h24.16.845,RewSL_SL_EEG,
ping,lowC,downLeft,DOWN,green,r,lowA,Stimuli\green_bar1.png,Stimuli\green_bar1.png,Stimuli\ping.png,midLeft,lowB,downRight,high,midRight,upLeft,upRight,2,m,,,,,0,91,91,95,,,0.6,0.7,exp,m,1,-7.16,-7.16,-10.14,0,7.16,-7.16,10.14,0,-7.16,7.16,7.16,7.16,4,234,0.7138658000039868,91,92,2,SL,2,F,19,R,2025-06-24_15h24.16.845,RewSL_SL_EEG,
ping,high,midRight,UP,green,l,lowA,Stimuli\green_bar1.png,Stimuli\green_bar1.png,Stimuli\ping.png,midLeft,lowB,downRight,lowC,downLeft,upLeft,upRight,2,z,,,,,0,92,92,33,,,0.4,0.7,exp,z,1,10.14,0,-10.14,0,7.16,-7.16,-7.16,-7.16,-7.16,7.16,7.16,7.16,4,124,0.6719479000021238,92,93,2,SL,2,F,19,R,2025-06-24_15h24.16.845,RewSL_SL_EEG,
ping,high,midRight,UP,red,r,lowA,Stimuli\red_bar1.png,Stimuli\red_bar1.png,Stimuli\ping.png,midLeft,lowB,downRight,lowC,downLeft,upLeft,upRight,2,z,,,,,0,93,93,44,,,0.4,0.6,exp,z,1,10.14,0,-10.14,0,7.16,-7.16,-7.16,-7.16,-7.16,7.16,7.16,7.16,4,124,0.5855475999996997,93,94,2,SL,2,F,19,R,2025-06-24_15h24.16.845,RewSL_SL_EEG,
ping,lowB,downRight,DOWN,red,l,lowA,Stimuli\red_bar1.png,Stimuli\red_bar1.png,Stimuli\ping.png,midLeft,high,midRight,lowC,downLeft,upLeft,upRight,2,m,,,,,0,94,94,82,,,0.5,0.8,exp,m,1,7.16,-7.16,-10.14,0,10.14,0,-7.16,-7.16,-7.16,7.16,7.16,7.16,4,244,0.6711532000044826,94,95,2,SL,2,F,19,R,2025-06-24_15h24.16.845,RewSL_SL_EEG,
ping,lowC,downLeft,UP,green,l,lowA,Stimuli\green_bar1.png,Stimuli\green_bar1.png,Stimuli\ping.png,midLeft,lowB,downRight,high,midRight,upLeft,upRight,2,z,,,,,0,95,95,89,,,0.5,0.7,exp,z,1,-7.16,-7.16,-10.14,0,7.16,-7.16,10.14,0,-7.16,7.16,7.16,7.16,4,134,0.7045276999997441,95,96,2,SL,2,F,19,R,2025-06-24_15h24.16.845,RewSL_SL_EEG,
ping,high,midRight,DOWN,red,l,lowA,Stimuli\red_bar1.png,Stimuli\red_bar1.png,Stimuli\ping.png,midLeft,lowB,downRight,lowC,downLeft,upLeft,upRight,2,m,,,,,0,96,96,2,,,0.4,0.8,exp,m,1,10.14,0,-10.14,0,7.16,-7.16,-7.16,-7.16,-7.16,7.16,7.16,7.16,4,224,0.6551050999987638,96,97,2,SL,2,F,19,R,2025-06-24_15h24.16.845,RewSL_SL_EEG,
ping,high,midRight,UP,green,r,lowA,Stimuli\green_bar1.png,Stimuli\green_bar1.png,Stimuli\ping.png,midLeft,lowB,downRight,lowC,downLeft,upLeft,upRight,2,z,,,,,0,97,97,29,,,0.6,0.8,exp,z,1,10.14,0,-10.14,0,7.16,-7.16,-7.16,-7.16,-7.16,7.16,7.16,7.16,4,124,0.6530517999926815,97,98,2,SL,2,F,19,R,2025-06-24_15h24.16.845,RewSL_SL_EEG,
ping,lowC,downLeft,DOWN,red,r,lowA,Stimuli\red_bar1.png,Stimuli\red_bar1.png,Stimuli\ping.png,midLeft,lowB,downRight,high,midRight,upLeft,upRight,2,m,,,,,0,98,98,86,,,0.6,0.6,exp,m,1,-7.16,-7.16,-10.14,0,7.16,-7.16,10.14,0,-7.16,7.16,7.16,7.16,4,234,0.7448849999927916,98,99,2,SL,2,F,19,R,2025-06-24_15h24.16.845,RewSL_SL_EEG,
ping,high,midRight,DOWN,red,l,lowA,Stimuli\red_bar1.png,Stimuli\red_bar1.png,Stimuli\ping.png,midLeft,lowB,downRight,lowC,downLeft,upLeft,upRight,2,m,,,,,0,99,99,42,,,0.5,0.6,exp,m,1,10.14,0,-10.14,0,7.16,-7.16,-7.16,-7.16,-7.16,7.16,7.16,7.16,4,224,0.6229152999876533,99,100,2,SL,2,F,19,R,2025-06-24_15h24.16.845,RewSL_SL_EEG,
ping,lowC,downLeft,UP,red,r,lowA,Stimuli\red_bar1.png,Stimuli\red_bar1.png,Stimuli\ping.png,midLeft,lowB,downRight,high,midRight,upLeft,upRight,2,z,,,,,0,0,0,92,,,0.5,0.6,exp,None,0,-7.16,-7.16,-10.14,0,7.16,-7.16,10.14,0,-7.16,7.16,7.16,7.16,4,134,,100,101,2,SL,2,F,19,R,2025-06-24_15h24.16.845,RewSL_SL_EEG,
ping,high,midRight,DOWN,red,l,lowA,Stimuli\red_bar1.png,Stimuli\red_bar1.png,Stimuli\ping.png,midLeft,lowB,downRight,lowC,downLeft,upLeft,upRight,2,m,,,,,0,1,1,2,,,0.6,0.6,exp,m,1,10.14,0,-10.14,0,7.16,-7.16,-7.16,-7.16,-7.16,7.16,7.16,7.16,4,224,0.8635931000026176,101,102,2,SL,2,F,19,R,2025-06-24_15h24.16.845,RewSL_SL_EEG,
ping,high,midRight,UP,green,l,lowA,Stimuli\green_bar1.png,Stimuli\green_bar1.png,Stimuli\ping.png,midLeft,lowB,downRight,lowC,downLeft,upLeft,upRight,2,z,,,,,0,2,2,49,,,0.5,0.6,exp,z,1,10.14,0,-10.14,0,7.16,-7.16,-7.16,-7.16,-7.16,7.16,7.16,7.16,4,124,0.6707258000096772,102,103,2,SL,2,F,19,R,2025-06-24_15h24.16.845,RewSL_SL_EEG,
ping,high,midRight,UP,red,r,lowA,Stimuli\red_bar1.png,Stimuli\red_bar1.png,Stimuli\ping.png,midLeft,lowB,downRight,lowC,downLeft,upLeft,upRight,2,z,,,,,0,3,3,28,,,0.4,0.6,exp,z,1,10.14,0,-10.14,0,7.16,-7.16,-7.16,-7.16,-7.16,7.16,7.16,7.16,4,124,0.5781917999993311,103,104,2,SL,2,F,19,R,2025-06-24_15h24.16.845,RewSL_SL_EEG,
ping,high,midRight,UP,red,l,lowA,Stimuli\red_bar1.png,Stimuli\red_bar1.png,Stimuli\ping.png,midLeft,lowB,downRight,lowC,downLeft,upLeft,upRight,2,z,,,,,0,4,4,8,,,0.5,0.7,exp,z,1,10.14,0,-10.14,0,7.16,-7.16,-7.16,-7.16,-7.16,7.16,7.16,7.16,4,124,0.571404900008929,104,105,2,SL,2,F,19,R,2025-06-24_15h24.16.845,RewSL_SL_EEG,
ping,high,midRight,UP,green,r,lowA,Stimuli\green_bar1.png,Stimuli\green_bar1.png,Stimuli\ping.png,midLeft,lowB,downRight,lowC,downLeft,upLeft,upRight,2,z,,,,,0,5,5,37,,,0.4,0.8,exp,z,1,10.14,0,-10.14,0,7.16,-7.16,-7.16,-7.16,-7.16,7.16,7.16,7.16,4,124,0.5547304000065196,105,106,2,SL,2,F,19,R,2025-06-24_15h24.16.845,RewSL_SL_EEG,
ping,high,midRight,UP,green,l,lowA,Stimuli\green_bar1.png,Stimuli\green_bar1.png,Stimuli\ping.png,midLeft,lowB,downRight,lowC,downLeft,upLeft,upRight,2,z,,,,,0,6,6,25,,,0.5,0.7,exp,z,1,10.14,0,-10.14,0,7.16,-7.16,-7.16,-7.16,-7.16,7.16,7.16,7.16,4,124,0.579645799996797,106,107,2,SL,2,F,19,R,2025-06-24_15h24.16.845,RewSL_SL_EEG,
ping,lowB,downRight,DOWN,green,r,lowA,Stimuli\green_bar1.png,Stimuli\green_bar1.png,Stimuli\ping.png,midLeft,high,midRight,lowC,downLeft,upLeft,upRight,2,m,,,,,0,7,7,79,,,0.4,0.6,exp,z,0,7.16,-7.16,-10.14,0,10.14,0,-7.16,-7.16,-7.16,7.16,7.16,7.16,4,244,0.7386025000014342,107,108,2,SL,2,F,19,R,2025-06-24_15h24.16.845,RewSL_SL_EEG,
ping,lowC,downLeft,DOWN,red,l,lowA,Stimuli\red_bar1.png,Stimuli\red_bar1.png,Stimuli\ping.png,midLeft,lowB,downRight,high,midRight,upLeft,upRight,2,m,,,,,0,8,8,98,,,0.6,0.7,exp,m,1,-7.16,-7.16,-10.14,0,7.16,-7.16,10.14,0,-7.16,7.16,7.16,7.16,4,234,1.1630994000006467,108,109,2,SL,2,F,19,R,2025-06-24_15h24.16.845,RewSL_SL_EEG,
ping,high,midRight,UP,green,r,lowA,Stimuli\green_bar1.png,Stimuli\green_bar1.png,Stimuli\ping.png,midLeft,lowB,downRight,lowC,downLeft,upLeft,upRight,2,z,,,,,0,9,9,13,,,0.4,0.7,exp,z,1,10.14,0,-10.14,0,7.16,-7.16,-7.16,-7.16,-7.16,7.16,7.16,7.16,4,124,1.004771100007929,109,110,2,SL,2,F,19,R,2025-06-24_15h24.16.845,RewSL_SL_EEG,
ping,lowB,downRight,DOWN,red,r,lowA,Stimuli\red_bar1.png,Stimuli\red_bar1.png,Stimuli\ping.png,midLeft,high,midRight,lowC,downLeft,upLeft,upRight,2,m,,,,,0,10,10,78,,,0.5,0.7,exp,m,1,7.16,-7.16,-10.14,0,10.14,0,-7.16,-7.16,-7.16,7.16,7.16,7.16,4,244,0.7363420000037877,110,111,2,SL,2,F,19,R,2025-06-24_15h24.16.845,RewSL_SL_EEG,
ping,high,midRight,UP,red,r,lowA,Stimuli\red_bar1.png,Stimuli\red_bar1.png,Stimuli\ping.png,midLeft,lowB,downRight,lowC,downLeft,upLeft,upRight,2,z,,,,,0,11,11,20,,,0.5,0.7,exp,z,1,10.14,0,-10.14,0,7.16,-7.16,-7.16,-7.16,-7.16,7.16,7.16,7.16,4,124,0.5632502999942517,111,112,2,SL,2,F,19,R,2025-06-24_15h24.16.845,RewSL_SL_EEG,
ping,lowC,downLeft,UP,red,r,lowA,Stimuli\red_bar1.png,Stimuli\red_bar1.png,Stimuli\ping.png,midLeft,lowB,downRight,high,midRight,upLeft,upRight,2,z,,,,,0,12,12,84,,,0.4,0.6,exp,z,1,-7.16,-7.16,-10.14,0,7.16,-7.16,10.14,0,-7.16,7.16,7.16,7.16,4,134,0.7297167999931844,112,113,2,SL,2,F,19,R,2025-06-24_15h24.16.845,RewSL_SL_EEG,
ping,lowC,downLeft,DOWN,red,r,lowA,Stimuli\red_bar1.png,Stimuli\red_bar1.png,Stimuli\ping.png,midLeft,lowB,downRight,high,midRight,upLeft,upRight,2,m,,,,,0,13,13,94,,,0.6,0.7,exp,m,1,-7.16,-7.16,-10.14,0,7.16,-7.16,10.14,0,-7.16,7.16,7.16,7.16,4,234,0.7550571000028867,113,114,2,SL,2,F,19,R,2025-06-24_15h24.16.845,RewSL_SL_EEG,
ping,high,midRight,DOWN,green,l,lowA,Stimuli\green_bar1.png,Stimuli\green_bar1.png,Stimuli\ping.png,midLeft,lowB,downRight,lowC,downLeft,upLeft,upRight,2,m,,,,,0,14,14,43,,,0.4,0.6,exp,m,1,10.14,0,-10.14,0,7.16,-7.16,-7.16,-7.16,-7.16,7.16,7.16,7.16,4,224,0.6875297999940813,114,115,2,SL,2,F,19,R,2025-06-24_15h24.16.845,RewSL_SL_EEG,
ping,lowC,downLeft,DOWN,red,l,lowA,Stimuli\red_bar1.png,Stimuli\red_bar1.png,Stimuli\ping.png,midLeft,lowB,downRight,high,midRight,upLeft,upRight,2,m,,,,,0,15,15,90,,,0.5,0.8,exp,m,1,-7.16,-7.16,-10.14,0,7.16,-7.16,10.14,0,-7.16,7.16,7.16,7.16,4,234,0.6121141000039643,115,116,2,SL,2,F,19,R,2025-06-24_15h24.16.845,RewSL_SL_EEG,
ping,lowA,midLeft,UP,red,l,high,Stimuli\red_bar1.png,Stimuli\red_bar1.png,Stimuli\ping.png,midRight,lowB,downRight,lowC,downLeft,upLeft,upRight,2,z,,,,,0,16,16,64,,,0.6,0.6,exp,z,1,-10.14,0,10.14,0,7.16,-7.16,-7.16,-7.16,-7.16,7.16,7.16,7.16,4,114,0.6715293000015663,116,117,2,SL,2,F,19,R,2025-06-24_15h24.16.845,RewSL_SL_EEG,
ping,high,midRight,DOWN,red,r,lowA,Stimuli\red_bar1.png,Stimuli\red_bar1.png,Stimuli\ping.png,midLeft,lowB,downRight,lowC,downLeft,upLeft,upRight,2,m,,,,,0,17,17,14,,,0.5,0.7,exp,m,1,10.14,0,-10.14,0,7.16,-7.16,-7.16,-7.16,-7.16,7.16,7.16,7.16,4,224,0.52222189999884,117,118,2,SL,2,F,19,R,2025-06-24_15h24.16.845,RewSL_SL_EEG,
ping,high,midRight,UP,red,l,lowA,Stimuli\red_bar1.png,Stimuli\red_bar1.png,Stimuli\ping.png,midLeft,lowB,downRight,lowC,downLeft,upLeft,upRight,2,z,,,,,0,18,18,16,,,0.4,0.7,exp,z,1,10.14,0,-10.14,0,7.16,-7.16,-7.16,-7.16,-7.16,7.16,7.16,7.16,4,124,0.598079699993832,118,119,2,SL,2,F,19,R,2025-06-24_15h24.16.845,RewSL_SL_EEG,
ping,high,midRight,DOWN,green,l,lowA,Stimuli\green_bar1.png,Stimuli\green_bar1.png,Stimuli\ping.png,midLeft,lowB,downRight,lowC,downLeft,upLeft,upRight,2,m,,,,,0,19,19,35,,,0.5,0.8,exp,m,1,10.14,0,-10.14,0,7.16,-7.16,-7.16,-7.16,-7.16,7.16,7.16,7.16,4,224,0.638009799993597,119,120,2,SL,2,F,19,R,2025-06-24_15h24.16.845,RewSL_SL_EEG,
ping,high,midRight,UP,green,l,lowA,Stimuli\green_bar1.png,Stimuli\green_bar1.png,Stimuli\ping.png,midLeft,lowB,downRight,lowC,downLeft,upLeft,upRight,2,z,,,,,0,20,20,17,,,0.4,0.7,exp,None,0,10.14,0,-10.14,0,7.16,-7.16,-7.16,-7.16,-7.16,7.16,7.16,7.16,4,124,,120,121,2,SL,2,F,19,R,2025-06-24_15h24.16.845,RewSL_SL_EEG,
ping,high,midRight,DOWN,red,r,lowA,Stimuli\red_bar1.png,Stimuli\red_bar1.png,Stimuli\ping.png,midLeft,lowB,downRight,lowC,downLeft,upLeft,upRight,2,m,,,,,0,21,21,30,,,0.5,0.7,exp,m,1,10.14,0,-10.14,0,7.16,-7.16,-7.16,-7.16,-7.16,7.16,7.16,7.16,4,224,0.47157090000109747,121,122,2,SL,2,F,19,R,2025-06-24_15h24.16.845,RewSL_SL_EEG,
ping,lowA,midLeft,DOWN,red,l,high,Stimuli\red_bar1.png,Stimuli\red_bar1.png,Stimuli\ping.png,midRight,lowB,downRight,lowC,downLeft,upLeft,upRight,2,m,,,,,0,22,22,66,,,0.5,0.6,exp,m,1,-10.14,0,10.14,0,7.16,-7.16,-7.16,-7.16,-7.16,7.16,7.16,7.16,4,214,0.6303111000015633,122,123,2,SL,2,F,19,R,2025-06-24_15h24.16.845,RewSL_SL_EEG,
ping,lowB,downRight,DOWN,red,l,lowA,Stimuli\red_bar1.png,Stimuli\red_bar1.png,Stimuli\ping.png,midLeft,high,midRight,lowC,downLeft,upLeft,upRight,2,m,,,,,0,23,23,74,,,0.6,0.8,exp,None,0,7.16,-7.16,-10.14,0,10.14,0,-7.16,-7.16,-7.16,7.16,7.16,7.16,4,244,,123,124,2,SL,2,F,19,R,2025-06-24_15h24.16.845,RewSL_SL_EEG,
ping,high,midRight,DOWN,red,l,lowA,Stimuli\red_bar1.png,Stimuli\red_bar1.png,Stimuli\ping.png,midLeft,lowB,downRight,lowC,downLeft,upLeft,upRight,2,m,,,,,0,24,24,18,,,0.5,0.7,exp,m,1,10.14,0,-10.14,0,7.16,-7.16,-7.16,-7.16,-7.16,7.16,7.16,7.16,4,224,0.5633796000038274,124,125,2,SL,2,F,19,R,2025-06-24_15h24.16.845,RewSL_SL_EEG,
ping,lowB,downRight,DOWN,red,l,lowA,Stimuli\red_bar1.png,Stimuli\red_bar1.png,Stimuli\ping.png,midLeft,high,midRight,lowC,downLeft,upLeft,upRight,2,m,,,,,0,25,25,82,,,0.6,0.7,exp,m,1,7.16,-7.16,-10.14,0,10.14,0,-7.16,-7.16,-7.16,7.16,7.16,7.16,4,244,0.9631874999904539,125,126,2,SL,2,F,19,R,2025-06-24_15h24.16.845,RewSL_SL_EEG,
ping,lowC,downLeft,UP,green,l,lowA,Stimuli\green_bar1.png,Stimuli\green_bar1.png,Stimuli\ping.png,midLeft,lowB,downRight,high,midRight,upLeft,upRight,2,z,,,,,0,26,26,89,,,0.5,0.7,exp,z,1,-7.16,-7.16,-10.14,0,7.16,-7.16,10.14,0,-7.16,7.16,7.16,7.16,4,134,0.5783064999995986,126,127,2,SL,2,F,19,R,2025-06-24_15h24.16.845,RewSL_SL_EEG,
ping,lowA,midLeft,DOWN,green,l,high,Stimuli\green_bar1.png,Stimuli\green_bar1.png,Stimuli\ping.png,midRight,lowB,downRight,lowC,downLeft,upLeft,upRight,2,m,,,,,0,27,27,59,,,0.6,0.7,exp,m,1,-10.14,0,10.14,0,7.16,-7.16,-7.16,-7.16,-7.16,7.16,7.16,7.16,4,214,0.7026995000051102,127,128,2,SL,2,F,19,R,2025-06-24_15h24.16.845,RewSL_SL_EEG,
ping,high,midRight,UP,green,r,lowA,Stimuli\green_bar1.png,Stimuli\green_bar1.png,Stimuli\ping.png,midLeft,lowB,downRight,lowC,downLeft,upLeft,upRight,2,z,,,,,0,28,28,5,,,0.5,0.6,exp,z,1,10.14,0,-10.14,0,7.16,-7.16,-7.16,-7.16,-7.16,7.16,7.16,7.16,4,124,0.9537730000010924,128,129,2,SL,2,F,19,R,2025-06-24_15h24.16.845,RewSL_SL_EEG,
ping,high,midRight,DOWN,green,l,lowA,Stimuli\green_bar1.png,Stimuli\green_bar1.png,Stimuli\ping.png,midLeft,lowB,downRight,lowC,downLeft,upLeft,upRight,2,m,,,,,0,29,29,51,,,0.5,0.7,exp,m,1,10.14,0,-10.14,0,7.16,-7.16,-7.16,-7.16,-7.16,7.16,7.16,7.16,4,224,0.5599958999955561,129,130,2,SL,2,F,19,R,2025-06-24_15h24.16.845,RewSL_SL_EEG,
ping,lowB,downRight,UP,green,l,lowA,Stimuli\green_bar1.png,Stimuli\green_bar1.png,Stimuli\ping.png,midLeft,high,midRight,lowC,downLeft,upLeft,upRight,2,z,,,,,0,30,30,73,,,0.6,0.6,exp,z,1,7.16,-7.16,-10.14,0,10.14,0,-7.16,-7.16,-7.16,7.16,7.16,7.16,4,144,0.7631377000070643,130,131,2,SL,2,F,19,R,2025-06-24_15h24.16.845,RewSL_SL_EEG,
ping,lowA,midLeft,UP,green,l,high,Stimuli\green_bar1.png,Stimuli\green_bar1.png,Stimuli\ping.png,midRight,lowB,downRight,lowC,downLeft,upLeft,upRight,2,z,,,,,0,31,31,65,,,0.6,0.7,exp,z,1,-10.14,0,10.14,0,7.16,-7.16,-7.16,-7.16,-7.16,7.16,7.16,7.16,4,114,0.7541706999909366,131,132,2,SL,2,F,19,R,2025-06-24_15h24.16.845,RewSL_SL_EEG,
ping,high,midRight,UP,green,r,lowA,Stimuli\green_bar1.png,Stimuli\green_bar1.png,Stimuli\ping.png,midLeft,lowB,downRight,lowC,downLeft,upLeft,upRight,2,z,,,,,0,32,32,45,,,0.6,0.7,exp,m,0,10.14,0,-10.14,0,7.16,-7.16,-7.16,-7.16,-7.16,7.16,7.16,7.16,4,124,1.1130425999872386,132,133,2,SL,2,F,19,R,2025-06-24_15h24.16.845,RewSL_SL_EEG,
ping,lowA,midLeft,DOWN,green,r,high,Stimuli\green_bar1.png,Stimuli\green_bar1.png,Stimuli\ping.png,midRight,lowB,downRight,lowC,downLeft,upLeft,upRight,2,m,,,,,0,33,33,55,,,0.5,0.8,exp,m,1,-10.14,0,10.14,0,7.16,-7.16,-7.16,-7.16,-7.16,7.16,7.16,7.16,4,214,0.6537391000019852,133,134,2,SL,2,F,19,R,2025-06-24_15h24.16.845,RewSL_SL_EEG,
ping,high,midRight,DOWN,red,l,lowA,Stimuli\red_bar1.png,Stimuli\red_bar1.png,Stimuli\ping.png,midLeft,lowB,downRight,lowC,downLeft,upLeft,upRight,2,m,,,,,0,34,34,34,,,0.4,0.8,exp,m,1,10.14,0,-10.14,0,7.16,-7.16,-7.16,-7.16,-7.16,7.16,7.16,7.16,4,224,0.6124516999989282,134,135,2,SL,2,F,19,R,2025-06-24_15h24.16.845,RewSL_SL_EEG,
ping,high,midRight,UP,red,l,lowA,Stimuli\red_bar1.png,Stimuli\red_bar1.png,Stimuli\ping.png,midLeft,lowB,downRight,lowC,downLeft,upLeft,upRight,2,z,,,,,0,35,35,48,,,0.6,0.6,exp,z,1,10.14,0,-10.14,0,7.16,-7.16,-7.16,-7.16,-7.16,7.16,7.16,7.16,4,124,0.5636004000116372,135,136,2,SL,2,F,19,R,2025-06-24_15h24.16.845,RewSL_SL_EEG,
ping,lowC,downLeft,DOWN,green,l,lowA,Stimuli\green_bar1.png,Stimuli\green_bar1.png,Stimuli\ping.png,midLeft,lowB,downRight,high,midRight,upLeft,upRight,2,m,,,,,0,36,36,99,,,0.6,0.7,exp,z,0,-7.16,-7.16,-10.14,0,7.16,-7.16,10.14,0,-7.16,7.16,7.16,7.16,4,234,0.8116778999974485,136,137,2,SL,2,F,19,R,2025-06-24_15h24.16.845,RewSL_SL_EEG,
ping,high,midRight,UP,green,l,lowA,Stimuli\green_bar1.png,Stimuli\green_bar1.png,Stimuli\ping.png,midLeft,lowB,downRight,lowC,downLeft,upLeft,upRight,2,z,,,,,0,37,37,1,,,0.6,0.8,exp,z,1,10.14,0,-10.14,0,7.16,-7.16,-7.16,-7.16,-7.16,7.16,7.16,7.16,4,124,1.013644300008309,137,138,2,SL,2,F,19,R,2025-06-24_15h24.16.845,RewSL_SL_EEG,
ping,high,midRight,DOWN,green,r,lowA,Stimuli\green_bar1.png,Stimuli\green_bar1.png,Stimuli\ping.png,midLeft,lowB,downRight,lowC,downLeft,upLeft,upRight,2,m,,,,,0,38,38,47,,,0.4,0.7,exp,m,1,10.14,0,-10.14,0,7.16,-7.16,-7.16,-7.16,-7.16,7.16,7.16,7.16,4,224,0.5465334000036819,138,139,2,SL,2,F,19,R,2025-06-24_15h24.16.845,RewSL_SL_EEG,
ping,high,midRight,DOWN,green,r,lowA,Stimuli\green_bar1.png,Stimuli\green_bar1.png,Stimuli\ping.png,midLeft,lowB,downRight,lowC,downLeft,upLeft,upRight,2,m,,,,,0,39,39,31,,,0.6,0.8,exp,m,1,10.14,0,-10.14,0,7.16,-7.16,-7.16,-7.16,-7.16,7.16,7.16,7.16,4,224,0.7469351999898208,139,140,2,SL,2,F,19,R,2025-06-24_15h24.16.845,RewSL_SL_EEG,
ping,high,midRight,DOWN,red,l,lowA,Stimuli\red_bar1.png,Stimuli\red_bar1.png,Stimuli\ping.png,midLeft,lowB,downRight,lowC,downLeft,upLeft,upRight,2,m,,,,,0,40,40,10,,,0.6,0.7,exp,m,1,10.14,0,-10.14,0,7.16,-7.16,-7.16,-7.16,-7.16,7.16,7.16,7.16,4,224,0.5951401000056649,140,141,2,SL,2,F,19,R,2025-06-24_15h24.16.845,RewSL_SL_EEG,
ping,lowB,downRight,UP,red,l,lowA,Stimuli\red_bar1.png,Stimuli\red_bar1.png,Stimuli\ping.png,midLeft,high,midRight,lowC,downLeft,upLeft,upRight,2,z,,,,,0,41,41,80,,,0.6,0.8,exp,z,1,7.16,-7.16,-10.14,0,10.14,0,-7.16,-7.16,-7.16,7.16,7.16,7.16,4,144,0.6459558000060497,141,142,2,SL,2,F,19,R,2025-06-24_15h24.16.845,RewSL_SL_EEG,
ping,high,midRight,UP,red,l,lowA,Stimuli\red_bar1.png,Stimuli\red_bar1.png,Stimuli\ping.png,midLeft,lowB,downRight,lowC,downLeft,upLeft,upRight,2,z,,,,,0,42,42,24,,,0.5,0.7,exp,z,1,10.14,0,-10.14,0,7.16,-7.16,-7.16,-7.16,-7.16,7.16,7.16,7.16,4,124,0.6959163999999873,142,143,2,SL,2,F,19,R,2025-06-24_15h24.16.845,RewSL_SL_EEG,
ping,lowC,downLeft,UP,green,r,lowA,Stimuli\green_bar1.png,Stimuli\green_bar1.png,Stimuli\ping.png,midLeft,lowB,downRight,high,midRight,upLeft,upRight,2,z,,,,,0,43,43,93,,,0.4,0.8,exp,z,1,-7.16,-7.16,-10.14,0,7.16,-7.16,10.14,0,-7.16,7.16,7.16,7.16,4,134,0.6118542000040179,143,144,2,SL,2,F,19,R,2025-06-24_15h24.16.845,RewSL_SL_EEG,
ping,lowC,downLeft,DOWN,green,r,lowA,Stimuli\green_bar1.png,Stimuli\green_bar1.png,Stimuli\ping.png,midLeft,lowB,downRight,high,midRight,upLeft,upRight,2,m,,,,,0,44,44,95,,,0.6,0.8,exp,m,1,-7.16,-7.16,-10.14,0,7.16,-7.16,10.14,0,-7.16,7.16,7.16,7.16,4,234,0.6551081000070553,144,145,2,SL,2,F,19,R,2025-06-24_15h24.16.845,RewSL_SL_EEG,
ping,lowB,downRight,UP,red,r,lowA,Stimuli\red_bar1.png,Stimuli\red_bar1.png,Stimuli\ping.png,midLeft,high,midRight,lowC,downLeft,upLeft,upRight,2,z,,,,,0,45,45,68,,,0.5,0.8,exp,None,0,7.16,-7.16,-10.14,0,10.14,0,-7.16,-7.16,-7.16,7.16,7.16,7.16,4,144,,145,146,2,SL,2,F,19,R,2025-06-24_15h24.16.845,RewSL_SL_EEG,
ping,lowB,downRight,DOWN,green,l,lowA,Stimuli\green_bar1.png,Stimuli\green_bar1.png,Stimuli\ping.png,midLeft,high,midRight,lowC,downLeft,upLeft,upRight,2,m,,,,,0,46,46,83,,,0.5,0.6,exp,m,1,7.16,-7.16,-10.14,0,10.14,0,-7.16,-7.16,-7.16,7.16,7.16,7.16,4,244,0.6792618000035873,146,147,2,SL,2,F,19,R,2025-06-24_15h24.16.845,RewSL_SL_EEG,
ping,lowB,downRight,UP,green,l,lowA,Stimuli\green_bar1.png,Stimuli\green_bar1.png,Stimuli\ping.png,midLeft,high,midRight,lowC,downLeft,upLeft,upRight,2,z,,,,,0,47,47,81,,,0.5,0.7,exp,z,1,7.16,-7.16,-10.14,0,10.14,0,-7.16,-7.16,-7.16,7.16,7.16,7.16,4,144,0.6547407000034582,147,148,2,SL,2,F,19,R,2025-06-24_15h24.16.845,RewSL_SL_EEG,
ping,lowA,midLeft,UP,red,r,high,Stimuli\red_bar1.png,Stimuli\red_bar1.png,Stimuli\ping.png,midRight,lowB,downRight,lowC,downLeft,upLeft,upRight,2,z,,,,,0,48,48,60,,,0.5,0.8,exp,z,1,-10.14,0,10.14,0,7.16,-7.16,-7.16,-7.16,-7.16,7.16,7.16,7.16,4,114,1.270479200000409,148,149,2,SL,2,F,19,R,2025-06-24_15h24.16.845,RewSL_SL_EEG,
ping,high,midRight,DOWN,green,l,lowA,Stimuli\green_bar1.png,Stimuli\green_bar1.png,Stimuli\ping.png,midLeft,lowB,downRight,lowC,downLeft,upLeft,upRight,2,m,,,,,0,49,49,11,,,0.5,0.8,exp,m,1,10.14,0,-10.14,0,7.16,-7.16,-7.16,-7.16,-7.16,7.16,7.16,7.16,4,224,0.5965156000020215,149,150,2,SL,2,F,19,R,2025-06-24_15h24.16.845,RewSL_SL_EEG,
ping,lowC,downLeft,DOWN,green,r,lowA,Stimuli\green_bar1.png,Stimuli\green_bar1.png,Stimuli\ping.png,midLeft,lowB,downRight,high,midRight,upLeft,upRight,2,m,,,,,0,50,50,87,,,0.5,0.7,exp,z,0,-7.16,-7.16,-10.14,0,7.16,-7.16,10.14,0,-7.16,7.16,7.16,7.16,4,234,0.7128500000108033,150,151,2,SL,2,F,19,R,2025-06-24_15h24.16.845,RewSL_SL_EEG,
ping,high,midRight,UP,red,l,lowA,Stimuli\red_bar1.png,Stimuli\red_bar1.png,Stimuli\ping.png,midLeft,lowB,downRight,lowC,downLeft,upLeft,upRight,2,z,,,,,0,51,51,40,,,0.5,0.6,exp,z,1,10.14,0,-10.14,0,7.16,-7.16,-7.16,-7.16,-7.16,7.16,7.16,7.16,4,124,1.1451445999991847,151,152,2,SL,2,F,19,R,2025-06-24_15h24.16.845,RewSL_SL_EEG,
ping,lowB,downRight,UP,red,r,lowA,Stimuli\red_bar1.png,Stimuli\red_bar1.png,Stimuli\ping.png,midLeft,high,midRight,lowC,downLeft,upLeft,upRight,2,z,,,,,0,52,52,76,,,0.5,0.6,exp,z,1,7.16,-7.16,-10.14,0,10.14,0,-7.16,-7.16,-7.16,7.16,7.16,7.16,4,144,0.9191484999901149,152,153,2,SL,2,F,19,R,2025-06-24_15h24.16.845,RewSL_SL_EEG,
ping,high,midRight,DOWN,green,l,lowA,Stimuli\green_bar1.png,Stimuli\green_bar1.png,Stimuli\ping.png,midLeft,lowB,downRight,lowC,downLeft,upLeft,upRight,2,m,,,,,0,53,53,3,,,0.4,0.8,exp,m,1,10.14,0,-10.14,0,7.16,-7.16,-7.16,-7.16,-7.16,7.16,7.16,7.16,4,224,0.6278428000077838,153,154,2,SL,2,F,19,R,2025-06-24_15h24.16.845,RewSL_SL_EEG,
ping,lowB,downRight,DOWN,green,l,lowA,Stimuli\green_bar1.png,Stimuli\green_bar1.png,Stimuli\ping.png,midLeft,high,midRight,lowC,downLeft,upLeft,upRight,2,m,,,,,0,54,54,75,,,0.5,0.6,exp,z,0,7.16,-7.16,-10.14,0,10.14,0,-7.16,-7.16,-7.16,7.16,7.16,7.16,4,244,0.9132203000044683,154,155,2,SL,2,F,19,R,2025-06-24_15h24.16.845,RewSL_SL_EEG,
ping,lowB,downRight,UP,green,r,lowA,Stimuli\green_bar1.png,Stimuli\green_bar1.png,Stimuli\ping.png,midLeft,high,midRight,lowC,downLeft,upLeft,upRight,2,z,,,,,0,55,55,69,,,0.6,0.8,exp,z,1,7.16,-7.16,-10.14,0,10.14,0,-7.16,-7.16,-7.16,7.16,7.16,7.16,4,144,0.6390266999951564,155,156,2,SL,2,F,19,R,2025-06-24_15h24.16.845,RewSL_SL_EEG,
ping,high,midRight,UP,red,l,lowA,Stimuli\red_bar1.png,Stimuli\red_bar1.png,Stimuli\ping.png,midLeft,lowB,downRight,lowC,downLeft,upLeft,upRight,2,z,,,,,0,56,56,32,,,0.5,0.8,exp,z,1,10.14,0,-10.14,0,7.16,-7.16,-7.16,-7.16,-7.16,7.16,7.16,7.16,4,124,0.8518604999990202,156,157,2,SL,2,F,19,R,2025-06-24_15h24.16.845,RewSL_SL_EEG,
ping,high,midRight,UP,red,r,lowA,Stimuli\red_bar1.png,Stimuli\red_bar1.png,Stimuli\ping.png,midLeft,lowB,downRight,lowC,downLeft,upLeft,upRight,2,z,,,,,0,57,57,44,,,0.4,0.7,exp,z,1,10.14,0,-10.14,0,7.16,-7.16,-7.16,-7.16,-7.16,7.16,7.16,7.16,4,124,0.6548563999967882,157,158,2,SL,2,F,19,R,2025-06-24_15h24.16.845,RewSL_SL_EEG,
ping,lowA,midLeft,DOWN,red,r,high,Stimuli\red_bar1.png,Stimuli\red_bar1.png,Stimuli\ping.png,midRight,lowB,downRight,lowC,downLeft,upLeft,upRight,2,m,,,,,0,58,58,62,,,0.5,0.8,exp,m,1,-10.14,0,10.14,0,7.16,-7.16,-7.16,-7.16,-7.16,7.16,7.16,7.16,4,214,0.614282299997285,158,159,2,SL,2,F,19,R,2025-06-24_15h24.16.845,RewSL_SL_EEG,
ping,high,midRight,UP,green,l,lowA,Stimuli\green_bar1.png,Stimuli\green_bar1.png,Stimuli\ping.png,midLeft,lowB,downRight,lowC,downLeft,upLeft,upRight,2,z,,,,,0,59,59,33,,,0.4,0.6,exp,z,1,10.14,0,-10.14,0,7.16,-7.16,-7.16,-7.16,-7.16,7.16,7.16,7.16,4,124,0.5863577999989502,159,160,2,SL,2,F,19,R,2025-06-24_15h24.16.845,RewSL_SL_EEG,
ping,lowB,downRight,UP,green,r,lowA,Stimuli\green_bar1.png,Stimuli\green_bar1.png,Stimuli\ping.png,midLeft,high,midRight,lowC,downLeft,upLeft,upRight,2,z,,,,,0,60,60,77,,,0.4,0.7,exp,z,1,7.16,-7.16,-10.14,0,10.14,0,-7.16,-7.16,-7.16,7.16,7.16,7.16,4,144,0.7301230000011856,160,161,2,SL,2,F,19,R,2025-06-24_15h24.16.845,RewSL_SL_EEG,
ping,lowB,downRight,UP,red,l,lowA,Stimuli\red_bar1.png,Stimuli\red_bar1.png,Stimuli\ping.png,midLeft,high,midRight,lowC,downLeft,upLeft,upRight,2,z,,,,,0,61,61,72,,,0.6,0.7,exp,z,1,7.16,-7.16,-10.14,0,10.14,0,-7.16,-7.16,-7.16,7.16,7.16,7.16,4,144,1.1457457000069553,161,162,2,SL,2,F,19,R,2025-06-24_15h24.16.845,RewSL_SL_EEG,
ping,high,midRight,UP,red,r,lowA,Stimuli\red_bar1.png,Stimuli\red_bar1.png,Stimuli\ping.png,midLeft,lowB,downRight,lowC,downLeft,upLeft,upRight,2,z,,,,,0,62,62,12,,,0.4,0.8,exp,z,1,10.14,0,-10.14,0,7.16,-7.16,-7.16,-7.16,-7.16,7.16,7.16,7.16,4,124,0.7298881000024267,162,163,2,SL,2,F,19,R,2025-06-24_15h24.16.845,RewSL_SL_EEG,
ping,lowA,midLeft,UP,green,l,high,Stimuli\green_bar1.png,Stimuli\green_bar1.png,Stimuli\ping.png,midRight,lowB,downRight,lowC,downLeft,upLeft,upRight,2,z,,,,,0,63,63,57,,,0.5,0.6,exp,z,1,-10.14,0,10.14,0,7.16,-7.16,-7.16,-7.16,-7.16,7.16,7.16,7.16,4,114,0.7472587000083877,163,164,2,SL,2,F,19,R,2025-06-24_15h24.16.845,RewSL_SL_EEG,
ping,high,midRight,DOWN,green,r,lowA,Stimuli\green_bar1.png,Stimuli\green_bar1.png,Stimuli\ping.png,midLeft,lowB,downRight,lowC,downLeft,upLeft,upRight,2,m,,,,,0,64,64,39,,,0.4,0.8,exp,m,1,10.14,0,-10.14,0,7.16,-7.16,-7.16,-7.16,-7.16,7.16,7.16,7.16,4,224,0.5794734999944922,164,165,2,SL,2,F,19,R,2025-06-24_15h24.16.845,RewSL_SL_EEG,
ping,high,midRight,DOWN,red,r,lowA,Stimuli\red_bar1.png,Stimuli\red_bar1.png,Stimuli\ping.png,midLeft,lowB,downRight,lowC,downLeft,upLeft,upRight,2,m,,,,,0,65,65,22,,,0.5,0.8,exp,m,1,10.14,0,-10.14,0,7.16,-7.16,-7.16,-7.16,-7.16,7.16,7.16,7.16,4,224,0.828309900010936,165,166,2,SL,2,F,19,R,2025-06-24_15h24.16.845,RewSL_SL_EEG,
ping,high,midRight,UP,green,r,lowA,Stimuli\green_bar1.png,Stimuli\green_bar1.png,Stimuli\ping.png,midLeft,lowB,downRight,lowC,downLeft,upLeft,upRight,2,z,,,,,0,66,66,21,,,0.6,0.8,exp,None,0,10.14,0,-10.14,0,7.16,-7.16,-7.16,-7.16,-7.16,7.16,7.16,7.16,4,124,,166,167,2,SL,2,F,19,R,2025-06-24_15h24.16.845,RewSL_SL_EEG,
ping,high,midRight,UP,red,r,lowA,Stimuli\red_bar1.png,Stimuli\red_bar1.png,Stimuli\ping.png,midLeft,lowB,downRight,lowC,downLeft,upLeft,upRight,2,z,,,,,0,67,67,4,,,0.4,0.7,exp,z,1,10.14,0,-10.14,0,7.16,-7.16,-7.16,-7.16,-7.16,7.16,7.16,7.16,4,124,0.6375384999992093,167,168,2,SL,2,F,19,R,2025-06-24_15h24.16.845,RewSL_SL_EEG,
ping,high,midRight,DOWN,green,r,lowA,Stimuli\green_bar1.png,Stimuli\green_bar1.png,Stimuli\ping.png,midLeft,lowB,downRight,lowC,downLeft,upLeft,upRight,2,m,,,,,0,68,68,23,,,0.5,0.7,exp,m,1,10.14,0,-10.14,0,7.16,-7.16,-7.16,-7.16,-7.16,7.16,7.16,7.16,4,224,0.6054990000120597,168,169,2,SL,2,F,19,R,2025-06-24_15h24.16.845,RewSL_SL_EEG,
ping,high,midRight,DOWN,green,r,lowA,Stimuli\green_bar1.png,Stimuli\green_bar1.png,Stimuli\ping.png,midLeft,lowB,downRight,lowC,downLeft,upLeft,upRight,2,m,,,,,0,69,69,7,,,0.6,0.7,exp,m,1,10.14,0,-10.14,0,7.16,-7.16,-7.16,-7.16,-7.16,7.16,7.16,7.16,4,224,0.5217573999980232,169,170,2,SL,2,F,19,R,2025-06-24_15h24.16.845,RewSL_SL_EEG,
ping,lowC,downLeft,UP,green,l,lowA,Stimuli\green_bar1.png,Stimuli\green_bar1.png,Stimuli\ping.png,midLeft,lowB,downRight,high,midRight,upLeft,upRight,2,z,,,,,0,70,70,97,,,0.4,0.7,exp,z,1,-7.16,-7.16,-10.14,0,7.16,-7.16,10.14,0,-7.16,7.16,7.16,7.16,4,134,0.8684644000022672,170,171,2,SL,2,F,19,R,2025-06-24_15h24.16.845,RewSL_SL_EEG,
ping,high,midRight,DOWN,red,r,lowA,Stimuli\red_bar1.png,Stimuli\red_bar1.png,Stimuli\ping.png,midLeft,lowB,downRight,lowC,downLeft,upLeft,upRight,2,m,,,,,0,71,71,46,,,0.6,0.8,exp,m,1,10.14,0,-10.14,0,7.16,-7.16,-7.16,-7.16,-7.16,7.16,7.16,7.16,4,224,0.60323690000223,171,172,2,SL,2,F,19,R,2025-06-24_15h24.16.845,RewSL_SL_EEG,
ping,high,midRight,DOWN,green,r,lowA,Stimuli\green_bar1.png,Stimuli\green_bar1.png,Stimuli\ping.png,midLeft,lowB,downRight,lowC,downLeft,upLeft,upRight,2,m,,,,,0,72,72,15,,,0.5,0.6,exp,m,1,10.14,0,-10.14,0,7.16,-7.16,-7.16,-7.16,-7.16,7.16,7.16,7.16,4,224,0.7628190999967046,172,173,2,SL,2,F,19,R,2025-06-24_15h24.16.845,RewSL_SL_EEG,
ping,lowA,midLeft,DOWN,green,l,high,Stimuli\green_bar1.png,Stimuli\green_bar1.png,Stimuli\ping.png,midRight,lowB,downRight,lowC,downLeft,upLeft,upRight,2,m,,,,,0,73,73,67,,,0.6,0.7,exp,m,1,-10.14,0,10.14,0,7.16,-7.16,-7.16,-7.16,-7.16,7.16,7.16,7.16,4,214,0.7568771999940509,173,174,2,SL,2,F,19,R,2025-06-24_15h24.16.845,RewSL_SL_EEG,
ping,lowA,midLeft,DOWN,red,l,high,Stimuli\red_bar1.png,Stimuli\red_bar1.png,Stimuli\ping.png,midRight,lowB,downRight,lowC,downLeft,upLeft,upRight,2,m,,,,,0,74,74,58,,,0.6,0.8,exp,m,1,-10.14,0,10.14,0,7.16,-7.16,-7.16,-7.16,-7.16,7.16,7.16,7.16,4,214,0.6458936999988509,174,175,2,SL,2,F,19,R,2025-06-24_15h24.16.845,RewSL_SL_EEG,
ping,high,midRight,UP,red,l,lowA,Stimuli\red_bar1.png,Stimuli\red_bar1.png,Stimuli\ping.png,midLeft,lowB,downRight,lowC,downLeft,upLeft,upRight,2,z,,,,,0,75,75,0,,,0.5,0.7,exp,z,1,10.14,0,-10.14,0,7.16,-7.16,-7.16,-7.16,-7.16,7.16,7.16,7.16,4,124,0.5719022000121186,175,176,2,SL,2,F,19,R,2025-06-24_15h24.16.845,RewSL_SL_EEG,
ping,high,midRight,DOWN,green,l,lowA,Stimuli\green_bar1.png,Stimuli\green_bar1.png,Stimuli\ping.png,midLeft,lowB,downRight,lowC,downLeft,upLeft,upRight,2,m,,,,,0,76,76,27,,,0.4,0.6,exp,m,1,10.14,0,-10.14,0,7.16,-7.16,-7.16,-7.16,-7.16,7.16,7.16,7.16,4,224,0.6646238999965135,176,177,2,SL,2,F,19,R,2025-06-24_15h24.16.845,RewSL_SL_EEG,
ping,lowC,downLeft,UP,red,l,lowA,Stimuli\red_bar1.png,Stimuli\red_bar1.png,Stimuli\ping.png,midLeft,lowB,downRight,high,midRight,upLeft,upRight,2,z,,,,,0,77,77,88,,,0.6,0.7,exp,z,1,-7.16,-7.16,-10.14,0,7.16,-7.16,10.14,0,-7.16,7.16,7.16,7.16,4,134,0.7873469999904046,177,178,2,SL,2,F,19,R,2025-06-24_15h24.16.845,RewSL_SL_EEG,
ping,lowB,downRight,DOWN,green,r,lowA,Stimuli\green_bar1.png,Stimuli\green_bar1.png,Stimuli\ping.png,midLeft,high,midRight,lowC,downLeft,upLeft,upRight,2,m,,,,,0,78,78,71,,,0.5,0.6,exp,m,1,7.16,-7.16,-10.14,0,10.14,0,-7.16,-7.16,-7.16,7.16,7.16,7.16,4,244,0.5956563000072492,178,179,2,SL,2,F,19,R,2025-06-24_15h24.16.845,RewSL_SL_EEG,
ping,lowB,downRight,DOWN,red,r,lowA,Stimuli\red_bar1.png,Stimuli\red_bar1.png,Stimuli\ping.png,midLeft,high,midRight,lowC,downLeft,upLeft,upRight,2,m,,,,,0,79,79,70,,,0.5,0.7,exp,m,1,7.16,-7.16,-10.14,0,10.14,0,-7.16,-7.16,-7.16,7.16,7.16,7.16,4,244,0.5877981999947224,179,180,2,SL,2,F,19,R,2025-06-24_15h24.16.845,RewSL_SL_EEG,
ping,lowA,midLeft,DOWN,green,r,high,Stimuli\green_bar1.png,Stimuli\green_bar1.png,Stimuli\ping.png,midRight,lowB,downRight,lowC,downLeft,upLeft,upRight,2,m,,,,,0,80,80,63,,,0.5,0.8,exp,m,1,-10.14,0,10.14,0,7.16,-7.16,-7.16,-7.16,-7.16,7.16,7.16,7.16,4,214,0.7546222999953898,180,181,2,SL,2,F,19,R,2025-06-24_15h24.16.845,RewSL_SL_EEG,
ping,lowA,midLeft,UP,green,r,high,Stimuli\green_bar1.png,Stimuli\green_bar1.png,Stimuli\ping.png,midRight,lowB,downRight,lowC,downLeft,upLeft,upRight,2,z,,,,,0,81,81,61,,,0.5,0.8,exp,z,1,-10.14,0,10.14,0,7.16,-7.16,-7.16,-7.16,-7.16,7.16,7.16,7.16,4,114,0.7719196999969427,181,182,2,SL,2,F,19,R,2025-06-24_15h24.16.845,RewSL_SL_EEG,
ping,high,midRight,DOWN,red,l,lowA,Stimuli\red_bar1.png,Stimuli\red_bar1.png,Stimuli\ping.png,midLeft,lowB,downRight,lowC,downLeft,upLeft,upRight,2,m,,,,,0,82,82,50,,,0.5,0.7,exp,m,1,10.14,0,-10.14,0,7.16,-7.16,-7.16,-7.16,-7.16,7.16,7.16,7.16,4,224,0.5543873999995412,182,183,2,SL,2,F,19,R,2025-06-24_15h24.16.845,RewSL_SL_EEG,
ping,high,midRight,DOWN,red,r,lowA,Stimuli\red_bar1.png,Stimuli\red_bar1.png,Stimuli\ping.png,midLeft,lowB,downRight,lowC,downLeft,upLeft,upRight,2,m,,,,,0,83,83,6,,,0.5,0.8,exp,m,1,10.14,0,-10.14,0,7.16,-7.16,-7.16,-7.16,-7.16,7.16,7.16,7.16,4,224,0.9885529000021052,183,184,2,SL,2,F,19,R,2025-06-24_15h24.16.845,RewSL_SL_EEG,
ping,lowA,midLeft,DOWN,red,r,high,Stimuli\red_bar1.png,Stimuli\red_bar1.png,Stimuli\ping.png,midRight,lowB,downRight,lowC,downLeft,upLeft,upRight,2,m,,,,,0,84,84,54,,,0.4,0.6,exp,m,1,-10.14,0,10.14,0,7.16,-7.16,-7.16,-7.16,-7.16,7.16,7.16,7.16,4,214,0.6693001999956323,184,185,2,SL,2,F,19,R,2025-06-24_15h24.16.845,RewSL_SL_EEG,
ping,lowA,midLeft,UP,green,r,high,Stimuli\green_bar1.png,Stimuli\green_bar1.png,Stimuli\ping.png,midRight,lowB,downRight,lowC,downLeft,upLeft,upRight,2,z,,,,,0,85,85,53,,,0.5,0.6,exp,z,1,-10.14,0,10.14,0,7.16,-7.16,-7.16,-7.16,-7.16,7.16,7.16,7.16,4,114,0.60344229999464,185,186,2,SL,2,F,19,R,2025-06-24_15h24.16.845,RewSL_SL_EEG,
ping,lowC,downLeft,DOWN,green,l,lowA,Stimuli\green_bar1.png,Stimuli\green_bar1.png,Stimuli\ping.png,midLeft,lowB,downRight,high,midRight,upLeft,upRight,2,m,,,,,0,86,86,91,,,0.6,0.8,exp,z,0,-7.16,-7.16,-10.14,0,7.16,-7.16,10.14,0,-7.16,7.16,7.16,7.16,4,234,0.9884286000014981,186,187,2,SL,2,F,19,R,2025-06-24_15h24.16.845,RewSL_SL_EEG,
ping,high,midRight,UP,green,l,lowA,Stimuli\green_bar1.png,Stimuli\green_bar1.png,Stimuli\ping.png,midLeft,lowB,downRight,lowC,downLeft,upLeft,upRight,2,z,,,,,0,87,87,41,,,0.4,0.8,exp,m,0,10.14,0,-10.14,0,7.16,-7.16,-7.16,-7.16,-7.16,7.16,7.16,7.16,4,124,1.0884149000048637,187,188,2,SL,2,F,19,R,2025-06-24_15h24.16.845,RewSL_SL_EEG,
ping,high,midRight,UP,green,l,lowA,Stimuli\green_bar1.png,Stimuli\green_bar1.png,Stimuli\ping.png,midLeft,lowB,downRight,lowC,downLeft,upLeft,upRight,2,z,,,,,0,88,88,9,,,0.5,0.8,exp,z,1,10.14,0,-10.14,0,7.16,-7.16,-7.16,-7.16,-7.16,7.16,7.16,7.16,4,124,0.8430748000100721,188,189,2,SL,2,F,19,R,2025-06-24_15h24.16.845,RewSL_SL_EEG,
ping,lowC,downLeft,UP,green,r,lowA,Stimuli\green_bar1.png,Stimuli\green_bar1.png,Stimuli\ping.png,midLeft,lowB,downRight,high,midRight,upLeft,upRight,2,z,,,,,0,89,89,85,,,0.5,0.7,exp,z,1,-7.16,-7.16,-10.14,0,7.16,-7.16,10.14,0,-7.16,7.16,7.16,7.16,4,134,0.829473899997538,189,190,2,SL,2,F,19,R,2025-06-24_15h24.16.845,RewSL_SL_EEG,
ping,high,midRight,UP,green,r,lowA,Stimuli\green_bar1.png,Stimuli\green_bar1.png,Stimuli\ping.png,midLeft,lowB,downRight,lowC,downLeft,upLeft,upRight,2,z,,,,,0,90,90,29,,,0.4,0.7,exp,z,1,10.14,0,-10.14,0,7.16,-7.16,-7.16,-7.16,-7.16,7.16,7.16,7.16,4,124,0.8719083000032697,190,191,2,SL,2,F,19,R,2025-06-24_15h24.16.845,RewSL_SL_EEG,
ping,lowC,downLeft,UP,red,l,lowA,Stimuli\red_bar1.png,Stimuli\red_bar1.png,Stimuli\ping.png,midLeft,lowB,downRight,high,midRight,upLeft,upRight,2,z,,,,,0,91,91,96,,,0.4,0.8,exp,z,1,-7.16,-7.16,-10.14,0,7.16,-7.16,10.14,0,-7.16,7.16,7.16,7.16,4,134,0.687930599990068,191,192,2,SL,2,F,19,R,2025-06-24_15h24.16.845,RewSL_SL_EEG,
ping,lowA,midLeft,UP,red,r,high,Stimuli\red_bar1.png,Stimuli\red_bar1.png,Stimuli\ping.png,midRight,lowB,downRight,lowC,downLeft,upLeft,upRight,2,z,,,,,0,92,92,52,,,0.5,0.8,exp,z,1,-10.14,0,10.14,0,7.16,-7.16,-7.16,-7.16,-7.16,7.16,7.16,7.16,4,114,0.6432365999935428,192,193,2,SL,2,F,19,R,2025-06-24_15h24.16.845,RewSL_SL_EEG,
ping,lowA,midLeft,UP,red,l,high,Stimuli\red_bar1.png,Stimuli\red_bar1.png,Stimuli\ping.png,midRight,lowB,downRight,lowC,downLeft,upLeft,upRight,2,z,,,,,0,93,93,56,,,0.5,0.7,exp,z,1,-10.14,0,10.14,0,7.16,-7.16,-7.16,-7.16,-7.16,7.16,7.16,7.16,4,114,0.6702791999996407,193,194,2,SL,2,F,19,R,2025-06-24_15h24.16.845,RewSL_SL_EEG,
ping,high,midRight,DOWN,red,r,lowA,Stimuli\red_bar1.png,Stimuli\red_bar1.png,Stimuli\ping.png,midLeft,lowB,downRight,lowC,downLeft,upLeft,upRight,2,m,,,,,0,94,94,38,,,0.4,0.8,exp,m,1,10.14,0,-10.14,0,7.16,-7.16,-7.16,-7.16,-7.16,7.16,7.16,7.16,4,224,0.5537846000079298,194,195,2,SL,2,F,19,R,2025-06-24_15h24.16.845,RewSL_SL_EEG,
ping,high,midRight,DOWN,red,l,lowA,Stimuli\red_bar1.png,Stimuli\red_bar1.png,Stimuli\ping.png,midLeft,lowB,downRight,lowC,downLeft,upLeft,upRight,2,m,,,,,0,95,95,26,,,0.5,0.7,exp,m,1,10.14,0,-10.14,0,7.16,-7.16,-7.16,-7.16,-7.16,7.16,7.16,7.16,4,224,0.6546334000013303,195,196,2,SL,2,F,19,R,2025-06-24_15h24.16.845,RewSL_SL_EEG,
ping,high,midRight,UP,red,r,lowA,Stimuli\red_bar1.png,Stimuli\red_bar1.png,Stimuli\ping.png,midLeft,lowB,downRight,lowC,downLeft,upLeft,upRight,2,z,,,,,0,96,96,36,,,0.5,0.7,exp,z,1,10.14,0,-10.14,0,7.16,-7.16,-7.16,-7.16,-7.16,7.16,7.16,7.16,4,124,0.8222928999894066,196,197,2,SL,2,F,19,R,2025-06-24_15h24.16.845,RewSL_SL_EEG,
ping,lowC,downLeft,DOWN,red,r,lowA,Stimuli\red_bar1.png,Stimuli\red_bar1.png,Stimuli\ping.png,midLeft,lowB,downRight,high,midRight,upLeft,upRight,2,m,,,,,0,97,97,86,,,0.4,0.6,exp,m,1,-7.16,-7.16,-10.14,0,7.16,-7.16,10.14,0,-7.16,7.16,7.16,7.16,4,234,0.7377860999986297,197,198,2,SL,2,F,19,R,2025-06-24_15h24.16.845,RewSL_SL_EEG,
ping,high,midRight,DOWN,red,l,lowA,Stimuli\red_bar1.png,Stimuli\red_bar1.png,Stimuli\ping.png,midLeft,lowB,downRight,lowC,downLeft,upLeft,upRight,2,m,,,,,0,98,98,42,,,0.5,0.7,exp,m,1,10.14,0,-10.14,0,7.16,-7.16,-7.16,-7.16,-7.16,7.16,7.16,7.16,4,224,0.563075400001253,198,199,2,SL,2,F,19,R,2025-06-24_15h24.16.845,RewSL_SL_EEG,
ping,high,midRight,DOWN,green,l,lowA,Stimuli\green_bar1.png,Stimuli\green_bar1.png,Stimuli\ping.png,midLeft,lowB,downRight,lowC,downLeft,upLeft,upRight,2,m,,,,,0,99,99,19,,,0.5,0.6,exp,m,1,10.14,0,-10.14,0,7.16,-7.16,-7.16,-7.16,-7.16,7.16,7.16,7.16,4,224,1.2535194999945816,199,200,2,SL,2,F,19,R,2025-06-24_15h24.16.845,RewSL_SL_EEG,
ping,high,downRight,UP,red,r,lowA,Stimuli\red_bar1.png,Stimuli\red_bar1.png,Stimuli\ping.png,downLeft,lowB,midRight,lowC,midLeft,upLeft,upRight,4,z,,,,,0,0,0,24,,,0.4,0.7,exp,z,1,7.16,-7.16,-7.16,-7.16,10.14,0,-10.14,0,-7.16,7.16,7.16,7.16,8,148,0.9126402999972925,200,201,2,SL,2,F,19,R,2025-06-24_15h24.16.845,RewSL_SL_EEG,
ping,lowA,downLeft,UP,red,l,high,Stimuli\red_bar1.png,Stimuli\red_bar1.png,Stimuli\ping.png,downRight,lowB,midRight,lowC,midLeft,upLeft,upRight,4,z,,,,,0,1,1,52,,,0.5,0.6,exp,z,1,-7.16,-7.16,7.16,-7.16,10.14,0,-10.14,0,-7.16,7.16,7.16,7.16,8,138,0.6124631999991834,201,202,2,SL,2,F,19,R,2025-06-24_15h24.16.845,RewSL_SL_EEG,
ping,high,downRight,UP,green,r,lowA,Stimuli\green_bar1.png,Stimuli\green_bar1.png,Stimuli\ping.png,downLeft,lowB,midRight,lowC,midLeft,upLeft,upRight,4,z,,,,,0,2,2,41,,,0.6,0.7,exp,z,1,7.16,-7.16,-7.16,-7.16,10.14,0,-10.14,0,-7.16,7.16,7.16,7.16,8,148,0.8210755999898538,202,203,2,SL,2,F,19,R,2025-06-24_15h24.16.845,RewSL_SL_EEG,
ping,lowB,midRight,DOWN,red,l,lowA,Stimuli\red_bar1.png,Stimuli\red_bar1.png,Stimuli\ping.png,downLeft,high,downRight,lowC,midLeft,upLeft,upRight,4,m,,,,,0,3,3,78,,,0.5,0.6,exp,m,1,10.14,0,-7.16,-7.16,7.16,-7.16,-10.14,0,-7.16,7.16,7.16,7.16,8,228,0.7358195999986492,203,204,2,SL,2,F,19,R,2025-06-24_15h24.16.845,RewSL_SL_EEG,
ping,high,downRight,UP,green,l,lowA,Stimuli\green_bar1.png,Stimuli\green_bar1.png,Stimuli\ping.png,downLeft,lowB,midRight,lowC,midLeft,upLeft,upRight,4,z,,,,,0,4,4,13,,,0.6,0.8,exp,z,1,7.16,-7.16,-7.16,-7.16,10.14,0,-10.14,0,-7.16,7.16,7.16,7.16,8,148,0.5719709999975748,204,205,2,SL,2,F,19,R,2025-06-24_15h24.16.845,RewSL_SL_EEG,
ping,lowB,midRight,DOWN,red,l,lowA,Stimuli\red_bar1.png,Stimuli\red_bar1.png,Stimuli\ping.png,downLeft,high,downRight,lowC,midLeft,upLeft,upRight,4,m,,,,,0,5,5,70,,,0.5,0.7,exp,m,1,10.14,0,-7.16,-7.16,7.16,-7.16,-10.14,0,-7.16,7.16,7.16,7.16,8,228,0.6624750000046333,205,206,2,SL,2,F,19,R,2025-06-24_15h24.16.845,RewSL_SL_EEG,
ping,lowB,midRight,UP,red,l,lowA,Stimuli\red_bar1.png,Stimuli\red_bar1.png,Stimuli\ping.png,downLeft,high,downRight,lowC,midLeft,upLeft,upRight,4,z,,,,,0,6,6,68,,,0.5,0.8,exp,z,1,10.14,0,-7.16,-7.16,7.16,-7.16,-10.14,0,-7.16,7.16,7.16,7.16,8,128,0.7798778000142192,206,207,2,SL,2,F,19,R,2025-06-24_15h24.16.845,RewSL_SL_EEG,
ping,high,downRight,DOWN,red,r,lowA,Stimuli\red_bar1.png,Stimuli\red_bar1.png,Stimuli\ping.png,downLeft,lowB,midRight,lowC,midLeft,upLeft,upRight,4,m,,,,,0,7,7,34,,,0.4,0.7,exp,m,1,7.16,-7.16,-7.16,-7.16,10.14,0,-10.14,0,-7.16,7.16,7.16,7.16,8,248,0.7085054000053788,207,208,2,SL,2,F,19,R,2025-06-24_15h24.16.845,RewSL_SL_EEG,
ping,high,downRight,UP,green,r,lowA,Stimuli\green_bar1.png,Stimuli\green_bar1.png,Stimuli\ping.png,downLeft,lowB,midRight,lowC,midLeft,upLeft,upRight,4,z,,,,,0,8,8,33,,,0.5,0.7,exp,z,1,7.16,-7.16,-7.16,-7.16,10.14,0,-10.14,0,-7.16,7.16,7.16,7.16,8,148,0.6771850999939488,208,209,2,SL,2,F,19,R,2025-06-24_15h24.16.845,RewSL_SL_EEG,
ping,high,downRight,UP,green,r,lowA,Stimuli\green_bar1.png,Stimuli\green_bar1.png,Stimuli\ping.png,downLeft,lowB,midRight,lowC,midLeft,upLeft,upRight,4,z,,,,,0,9,9,49,,,0.5,0.7,exp,m,0,7.16,-7.16,-7.16,-7.16,10.14,0,-10.14,0,-7.16,7.16,7.16,7.16,8,148,1.1009249000053387,209,210,2,SL,2,F,19,R,2025-06-24_15h24.16.845,RewSL_SL_EEG,
ping,high,downRight,UP,red,l,lowA,Stimuli\red_bar1.png,Stimuli\red_bar1.png,Stimuli\ping.png,downLeft,lowB,midRight,lowC,midLeft,upLeft,upRight,4,z,,,,,0,10,10,12,,,0.5,0.7,exp,z,1,7.16,-7.16,-7.16,-7.16,10.14,0,-10.14,0,-7.16,7.16,7.16,7.16,8,148,0.6838048999925377,210,211,2,SL,2,F,19,R,2025-06-24_15h24.16.845,RewSL_SL_EEG,
ping,high,downRight,DOWN,green,r,lowA,Stimuli\green_bar1.png,Stimuli\green_bar1.png,Stimuli\ping.png,downLeft,lowB,midRight,lowC,midLeft,upLeft,upRight,4,m,,,,,0,11,11,27,,,0.5,0.7,exp,m,1,7.16,-7.16,-7.16,-7.16,10.14,0,-10.14,0,-7.16,7.16,7.16,7.16,8,248,0.8376462000014726,211,212,2,SL,2,F,19,R,2025-06-24_15h24.16.845,RewSL_SL_EEG,
ping,high,downRight,UP,red,l,lowA,Stimuli\red_bar1.png,Stimuli\red_bar1.png,Stimuli\ping.png,downLeft,lowB,midRight,lowC,midLeft,upLeft,upRight,4,z,,,,,0,12,12,28,,,0.4,0.7,exp,z,1,7.16,-7.16,-7.16,-7.16,10.14,0,-10.14,0,-7.16,7.16,7.16,7.16,8,148,0.8614830000005895,212,213,2,SL,2,F,19,R,2025-06-24_15h24.16.845,RewSL_SL_EEG,
ping,lowB,midRight,UP,green,r,lowA,Stimuli\green_bar1.png,Stimuli\green_bar1.png,Stimuli\ping.png,downLeft,high,downRight,lowC,midLeft,upLeft,upRight,4,z,,,,,0,13,13,73,,,0.6,0.8,exp,z,1,10.14,0,-7.16,-7.16,7.16,-7.16,-10.14,0,-7.16,7.16,7.16,7.16,8,128,0.638005400003749,213,214,2,SL,2,F,19,R,2025-06-24_15h24.16.845,RewSL_SL_EEG,
ping,high,downRight,UP,red,r,lowA,Stimuli\red_bar1.png,Stimuli\red_bar1.png,Stimuli\ping.png,downLeft,lowB,midRight,lowC,midLeft,upLeft,upRight,4,z,,,,,0,14,14,16,,,0.6,0.8,exp,z,1,7.16,-7.16,-7.16,-7.16,10.14,0,-10.14,0,-7.16,7.16,7.16,7.16,8,148,0.670650799991563,214,215,2,SL,2,F,19,R,2025-06-24_15h24.16.845,RewSL_SL_EEG,
ping,high,downRight,UP,green,l,lowA,Stimuli\green_bar1.png,Stimuli\green_bar1.png,Stimuli\ping.png,downLeft,lowB,midRight,lowC,midLeft,upLeft,upRight,4,z,,,,,0,15,15,5,,,0.5,0.6,exp,z,1,7.16,-7.16,-7.16,-7.16,10.14,0,-10.14,0,-7.16,7.16,7.16,7.16,8,148,0.6546639000007417,215,216,2,SL,2,F,19,R,2025-06-24_15h24.16.845,RewSL_SL_EEG,
ping,lowC,midLeft,DOWN,red,l,lowA,Stimuli\red_bar1.png,Stimuli\red_bar1.png,Stimuli\ping.png,downLeft,lowB,midRight,high,downRight,upLeft,upRight,4,m,,,,,0,16,16,94,,,0.5,0.7,exp,m,1,-10.14,0,-7.16,-7.16,10.14,0,7.16,-7.16,-7.16,7.16,7.16,7.16,8,218,0.6628015000023879,216,217,2,SL,2,F,19,R,2025-06-24_15h24.16.845,RewSL_SL_EEG,
ping,high,downRight,DOWN,red,l,lowA,Stimuli\red_bar1.png,Stimuli\red_bar1.png,Stimuli\ping.png,downLeft,lowB,midRight,lowC,midLeft,upLeft,upRight,4,m,,,,,0,17,17,22,,,0.4,0.6,exp,m,1,7.16,-7.16,-7.16,-7.16,10.14,0,-10.14,0,-7.16,7.16,7.16,7.16,8,248,0.6787620999966748,217,218,2,SL,2,F,19,R,2025-06-24_15h24.16.845,RewSL_SL_EEG,
ping,lowA,downLeft,DOWN,green,r,high,Stimuli\green_bar1.png,Stimuli\green_bar1.png,Stimuli\ping.png,downRight,lowB,midRight,lowC,midLeft,upLeft,upRight,4,m,,,,,0,18,18,59,,,0.6,0.7,exp,m,1,-7.16,-7.16,7.16,-7.16,10.14,0,-10.14,0,-7.16,7.16,7.16,7.16,8,238,0.7453943000000436,218,219,2,SL,2,F,19,R,2025-06-24_15h24.16.845,RewSL_SL_EEG,
ping,lowA,downLeft,DOWN,red,l,high,Stimuli\red_bar1.png,Stimuli\red_bar1.png,Stimuli\ping.png,downRight,lowB,midRight,lowC,midLeft,upLeft,upRight,4,m,,,,,0,19,19,62,,,0.5,0.8,exp,m,1,-7.16,-7.16,7.16,-7.16,10.14,0,-10.14,0,-7.16,7.16,7.16,7.16,8,238,0.6209784999955446,219,220,2,SL,2,F,19,R,2025-06-24_15h24.16.845,RewSL_SL_EEG,
ping,high,downRight,UP,green,r,lowA,Stimuli\green_bar1.png,Stimuli\green_bar1.png,Stimuli\ping.png,downLeft,lowB,midRight,lowC,midLeft,upLeft,upRight,4,z,,,,,0,20,20,9,,,0.5,0.7,exp,z,1,7.16,-7.16,-7.16,-7.16,10.14,0,-10.14,0,-7.16,7.16,7.16,7.16,8,148,0.6450576000061119,220,221,2,SL,2,F,19,R,2025-06-24_15h24.16.845,RewSL_SL_EEG,
ping,high,downRight,UP,red,r,lowA,Stimuli\red_bar1.png,Stimuli\red_bar1.png,Stimuli\ping.png,downLeft,lowB,midRight,lowC,midLeft,upLeft,upRight,4,z,,,,,0,21,21,32,,,0.5,0.7,exp,z,1,7.16,-7.16,-7.16,-7.16,10.14,0,-10.14,0,-7.16,7.16,7.16,7.16,8,148,0.744716300003347,221,222,2,SL,2,F,19,R,2025-06-24_15h24.16.845,RewSL_SL_EEG,
ping,lowA,downLeft,UP,green,l,high,Stimuli\green_bar1.png,Stimuli\green_bar1.png,Stimuli\ping.png,downRight,lowB,midRight,lowC,midLeft,upLeft,upRight,4,z,,,,,0,22,22,61,,,0.6,0.7,exp,z,1,-7.16,-7.16,7.16,-7.16,10.14,0,-10.14,0,-7.16,7.16,7.16,7.16,8,138,1.1487008999974933,222,223,2,SL,2,F,19,R,2025-06-24_15h24.16.845,RewSL_SL_EEG,
ping,lowA,downLeft,DOWN,red,r,high,Stimuli\red_bar1.png,Stimuli\red_bar1.png,Stimuli\ping.png,downRight,lowB,midRight,lowC,midLeft,upLeft,upRight,4,m,,,,,0,23,23,58,,,0.6,0.8,exp,m,1,-7.16,-7.16,7.16,-7.16,10.14,0,-10.14,0,-7.16,7.16,7.16,7.16,8,238,1.2460563000058755,223,224,2,SL,2,F,19,R,2025-06-24_15h24.16.845,RewSL_SL_EEG,
ping,lowC,midLeft,DOWN,green,l,lowA,Stimuli\green_bar1.png,Stimuli\green_bar1.png,Stimuli\ping.png,downLeft,lowB,midRight,high,downRight,upLeft,upRight,4,m,,,,,0,24,24,95,,,0.5,0.6,exp,m,1,-10.14,0,-7.16,-7.16,10.14,0,7.16,-7.16,-7.16,7.16,7.16,7.16,8,218,0.5873198000044795,224,225,2,SL,2,F,19,R,2025-06-24_15h24.16.845,RewSL_SL_EEG,
ping,high,downRight,DOWN,green,r,lowA,Stimuli\green_bar1.png,Stimuli\green_bar1.png,Stimuli\ping.png,downLeft,lowB,midRight,lowC,midLeft,upLeft,upRight,4,m,,,,,0,25,25,43,,,0.4,0.8,exp,m,1,7.16,-7.16,-7.16,-7.16,10.14,0,-10.14,0,-7.16,7.16,7.16,7.16,8,248,0.8300783000013325,225,226,2,SL,2,F,19,R,2025-06-24_15h24.16.845,RewSL_SL_EEG,
ping,lowA,downLeft,UP,green,r,high,Stimuli\green_bar1.png,Stimuli\green_bar1.png,Stimuli\ping.png,downRight,lowB,midRight,lowC,midLeft,upLeft,upRight,4,z,,,,,0,26,26,57,,,0.4,0.7,exp,z,1,-7.16,-7.16,7.16,-7.16,10.14,0,-10.14,0,-7.16,7.16,7.16,7.16,8,138,0.7966939000034472,226,227,2,SL,2,F,19,R,2025-06-24_15h24.16.845,RewSL_SL_EEG,
ping,high,downRight,DOWN,red,l,lowA,Stimuli\red_bar1.png,Stimuli\red_bar1.png,Stimuli\ping.png,downLeft,lowB,midRight,lowC,midLeft,upLeft,upRight,4,m,,,,,0,27,27,30,,,0.4,0.8,exp,m,1,7.16,-7.16,-7.16,-7.16,10.14,0,-10.14,0,-7.16,7.16,7.16,7.16,8,248,0.7868004000047222,227,228,2,SL,2,F,19,R,2025-06-24_15h24.16.845,RewSL_SL_EEG,
ping,lowC,midLeft,UP,red,r,lowA,Stimuli\red_bar1.png,Stimuli\red_bar1.png,Stimuli\ping.png,downLeft,lowB,midRight,high,downRight,upLeft,upRight,4,z,,,,,0,28,28,88,,,0.4,0.8,exp,z,1,-10.14,0,-7.16,-7.16,10.14,0,7.16,-7.16,-7.16,7.16,7.16,7.16,8,118,0.6380454000027385,228,229,2,SL,2,F,19,R,2025-06-24_15h24.16.845,RewSL_SL_EEG,
ping,high,downRight,UP,red,r,lowA,Stimuli\red_bar1.png,Stimuli\red_bar1.png,Stimuli\ping.png,downLeft,lowB,midRight,lowC,midLeft,upLeft,upRight,4,z,,,,,0,29,29,8,,,0.5,0.7,exp,z,1,7.16,-7.16,-7.16,-7.16,10.14,0,-10.14,0,-7.16,7.16,7.16,7.16,8,148,0.629898500003037,229,230,2,SL,2,F,19,R,2025-06-24_15h24.16.845,RewSL_SL_EEG,
ping,lowB,midRight,UP,red,l,lowA,Stimuli\red_bar1.png,Stimuli\red_bar1.png,Stimuli\ping.png,downLeft,high,downRight,lowC,midLeft,upLeft,upRight,4,z,,,,,0,30,30,76,,,0.5,0.8,exp,z,1,10.14,0,-7.16,-7.16,7.16,-7.16,-10.14,0,-7.16,7.16,7.16,7.16,8,128,0.8802113999990979,230,231,2,SL,2,F,19,R,2025-06-24_15h24.16.845,RewSL_SL_EEG,
ping,high,downRight,UP,red,r,lowA,Stimuli\red_bar1.png,Stimuli\red_bar1.png,Stimuli\ping.png,downLeft,lowB,midRight,lowC,midLeft,upLeft,upRight,4,z,,,,,0,31,31,48,,,0.6,0.7,exp,z,1,7.16,-7.16,-7.16,-7.16,10.14,0,-10.14,0,-7.16,7.16,7.16,7.16,8,148,0.7132225999957882,231,232,2,SL,2,F,19,R,2025-06-24_15h24.16.845,RewSL_SL_EEG,
ping,lowB,midRight,DOWN,green,l,lowA,Stimuli\green_bar1.png,Stimuli\green_bar1.png,Stimuli\ping.png,downLeft,high,downRight,lowC,midLeft,upLeft,upRight,4,m,,,,,0,32,32,71,,,0.6,0.6,exp,m,1,10.14,0,-7.16,-7.16,7.16,-7.16,-10.14,0,-7.16,7.16,7.16,7.16,8,228,0.7044777999981306,232,233,2,SL,2,F,19,R,2025-06-24_15h24.16.845,RewSL_SL_EEG,
ping,high,downRight,DOWN,red,r,lowA,Stimuli\red_bar1.png,Stimuli\red_bar1.png,Stimuli\ping.png,downLeft,lowB,midRight,lowC,midLeft,upLeft,upRight,4,m,,,,,0,33,33,10,,,0.5,0.7,exp,m,1,7.16,-7.16,-7.16,-7.16,10.14,0,-10.14,0,-7.16,7.16,7.16,7.16,8,248,0.7132807000016328,233,234,2,SL,2,F,19,R,2025-06-24_15h24.16.845,RewSL_SL_EEG,
ping,lowB,midRight,UP,red,r,lowA,Stimuli\red_bar1.png,Stimuli\red_bar1.png,Stimuli\ping.png,downLeft,high,downRight,lowC,midLeft,upLeft,upRight,4,z,,,,,0,34,34,72,,,0.6,0.7,exp,z,1,10.14,0,-7.16,-7.16,7.16,-7.16,-10.14,0,-7.16,7.16,7.16,7.16,8,128,0.5551766999997199,234,235,2,SL,2,F,19,R,2025-06-24_15h24.16.845,RewSL_SL_EEG,
ping,high,downRight,UP,red,l,lowA,Stimuli\red_bar1.png,Stimuli\red_bar1.png,Stimuli\ping.png,downLeft,lowB,midRight,lowC,midLeft,upLeft,upRight,4,z,,,,,0,35,35,36,,,0.5,0.8,exp,z,1,7.16,-7.16,-7.16,-7.16,10.14,0,-10.14,0,-7.16,7.16,7.16,7.16,8,148,0.6134350000065751,235,236,2,SL,2,F,19,R,2025-06-24_15h24.16.845,RewSL_SL_EEG,
ping,high,downRight,UP,green,r,lowA,Stimuli\green_bar1.png,Stimuli\green_bar1.png,Stimuli\ping.png,downLeft,lowB,midRight,lowC,midLeft,upLeft,upRight,4,z,,,,,0,36,36,1,,,0.4,0.7,exp,z,1,7.16,-7.16,-7.16,-7.16,10.14,0,-10.14,0,-7.16,7.16,7.16,7.16,8,148,0.5538682000042172,236,237,2,SL,2,F,19,R,2025-06-24_15h24.16.845,RewSL_SL_EEG,
ping,high,downRight,UP,red,l,lowA,Stimuli\red_bar1.png,Stimuli\red_bar1.png,Stimuli\ping.png,downLeft,lowB,midRight,lowC,midLeft,upLeft,upRight,4,z,,,,,0,37,37,20,,,0.5,0.7,exp,z,1,7.16,-7.16,-7.16,-7.16,10.14,0,-10.14,0,-7.16,7.16,7.16,7.16,8,148,0.6456023999926401,237,238,2,SL,2,F,19,R,2025-06-24_15h24.16.845,RewSL_SL_EEG,
ping,high,downRight,DOWN,red,r,lowA,Stimuli\red_bar1.png,Stimuli\red_bar1.png,Stimuli\ping.png,downLeft,lowB,midRight,lowC,midLeft,upLeft,upRight,4,m,,,,,0,38,38,42,,,0.4,0.8,exp,m,1,7.16,-7.16,-7.16,-7.16,10.14,0,-10.14,0,-7.16,7.16,7.16,7.16,8,248,0.7801638999953866,238,239,2,SL,2,F,19,R,2025-06-24_15h24.16.845,RewSL_SL_EEG,
ping,lowC,midLeft,UP,green,l,lowA,Stimuli\green_bar1.png,Stimuli\green_bar1.png,Stimuli\ping.png,downLeft,lowB,midRight,high,downRight,upLeft,upRight,4,z,,,,,0,39,39,93,,,0.5,0.7,exp,z,1,-10.14,0,-7.16,-7.16,10.14,0,7.16,-7.16,-7.16,7.16,7.16,7.16,8,118,0.6459877000015695,239,240,2,SL,2,F,19,R,2025-06-24_15h24.16.845,RewSL_SL_EEG,
ping,high,downRight,UP,green,l,lowA,Stimuli\green_bar1.png,Stimuli\green_bar1.png,Stimuli\ping.png,downLeft,lowB,midRight,lowC,midLeft,upLeft,upRight,4,z,,,,,0,40,40,21,,,0.6,0.6,exp,z,1,7.16,-7.16,-7.16,-7.16,10.14,0,-10.14,0,-7.16,7.16,7.16,7.16,8,148,0.7225125000113621,240,241,2,SL,2,F,19,R,2025-06-24_15h24.16.845,RewSL_SL_EEG,
ping,lowB,midRight,DOWN,green,r,lowA,Stimuli\green_bar1.png,Stimuli\green_bar1.png,Stimuli\ping.png,downLeft,high,downRight,lowC,midLeft,upLeft,upRight,4,m,,,,,0,41,41,83,,,0.5,0.7,exp,m,1,10.14,0,-7.16,-7.16,7.16,-7.16,-10.14,0,-7.16,7.16,7.16,7.16,8,228,0.8138100999931339,241,242,2,SL,2,F,19,R,2025-06-24_15h24.16.845,RewSL_SL_EEG,
ping,lowC,midLeft,DOWN,red,r,lowA,Stimuli\red_bar1.png,Stimuli\red_bar1.png,Stimuli\ping.png,downLeft,lowB,midRight,high,downRight,upLeft,upRight,4,m,,,,,0,42,42,90,,,0.4,0.7,exp,m,1,-10.14,0,-7.16,-7.16,10.14,0,7.16,-7.16,-7.16,7.16,7.16,7.16,8,218,0.6365610000066226,242,243,2,SL,2,F,19,R,2025-06-24_15h24.16.845,RewSL_SL_EEG,
ping,high,downRight,DOWN,green,l,lowA,Stimuli\green_bar1.png,Stimuli\green_bar1.png,Stimuli\ping.png,downLeft,lowB,midRight,lowC,midLeft,upLeft,upRight,4,m,,,,,0,43,43,15,,,0.5,0.7,exp,m,1,7.16,-7.16,-7.16,-7.16,10.14,0,-10.14,0,-7.16,7.16,7.16,7.16,8,248,0.7458285999891814,243,244,2,SL,2,F,19,R,2025-06-24_15h24.16.845,RewSL_SL_EEG,
ping,high,downRight,UP,red,l,lowA,Stimuli\red_bar1.png,Stimuli\red_bar1.png,Stimuli\ping.png,downLeft,lowB,midRight,lowC,midLeft,upLeft,upRight,4,z,,,,,0,44,44,4,,,0.4,0.8,exp,z,1,7.16,-7.16,-7.16,-7.16,10.14,0,-10.14,0,-7.16,7.16,7.16,7.16,8,148,0.5863080999988597,244,245,2,SL,2,F,19,R,2025-06-24_15h24.16.845,RewSL_SL_EEG,
ping,high,downRight,UP,green,r,lowA,Stimuli\green_bar1.png,Stimuli\green_bar1.png,Stimuli\ping.png,downLeft,lowB,midRight,lowC,midLeft,upLeft,upRight,4,z,,,,,0,45,45,25,,,0.5,0.6,exp,z,1,7.16,-7.16,-7.16,-7.16,10.14,0,-10.14,0,-7.16,7.16,7.16,7.16,8,148,1.237271799996961,245,246,2,SL,2,F,19,R,2025-06-24_15h24.16.845,RewSL_SL_EEG,
ping,high,downRight,DOWN,red,l,lowA,Stimuli\red_bar1.png,Stimuli\red_bar1.png,Stimuli\ping.png,downLeft,lowB,midRight,lowC,midLeft,upLeft,upRight,4,m,,,,,0,46,46,14,,,0.6,0.7,exp,m,1,7.16,-7.16,-7.16,-7.16,10.14,0,-10.14,0,-7.16,7.16,7.16,7.16,8,248,0.5961299000045983,246,247,2,SL,2,F,19,R,2025-06-24_15h24.16.845,RewSL_SL_EEG,
ping,lowA,downLeft,DOWN,green,r,high,Stimuli\green_bar1.png,Stimuli\green_bar1.png,Stimuli\ping.png,downRight,lowB,midRight,lowC,midLeft,upLeft,upRight,4,m,,,,,0,47,47,67,,,0.5,0.7,exp,z,0,-7.16,-7.16,7.16,-7.16,10.14,0,-10.14,0,-7.16,7.16,7.16,7.16,8,238,0.7540925999928731,247,248,2,SL,2,F,19,R,2025-06-24_15h24.16.845,RewSL_SL_EEG,
ping,lowB,midRight,DOWN,green,r,lowA,Stimuli\green_bar1.png,Stimuli\green_bar1.png,Stimuli\ping.png,downLeft,high,downRight,lowC,midLeft,upLeft,upRight,4,m,,,,,0,48,48,75,,,0.5,0.7,exp,m,1,10.14,0,-7.16,-7.16,7.16,-7.16,-10.14,0,-7.16,7.16,7.16,7.16,8,228,0.6884151999984169,248,249,2,SL,2,F,19,R,2025-06-24_15h24.16.845,RewSL_SL_EEG,
ping,lowA,downLeft,UP,red,r,high,Stimuli\red_bar1.png,Stimuli\red_bar1.png,Stimuli\ping.png,downRight,lowB,midRight,lowC,midLeft,upLeft,upRight,4,z,,,,,0,49,49,56,,,0.5,0.7,exp,z,1,-7.16,-7.16,7.16,-7.16,10.14,0,-10.14,0,-7.16,7.16,7.16,7.16,8,138,0.6127179000031902,249,250,2,SL,2,F,19,R,2025-06-24_15h24.16.845,RewSL_SL_EEG,
ping,lowC,midLeft,DOWN,red,l,lowA,Stimuli\red_bar1.png,Stimuli\red_bar1.png,Stimuli\ping.png,downLeft,lowB,midRight,high,downRight,upLeft,upRight,4,m,,,,,0,50,50,86,,,0.6,0.7,exp,m,1,-10.14,0,-7.16,-7.16,10.14,0,7.16,-7.16,-7.16,7.16,7.16,7.16,8,218,0.5956738000095356,250,251,2,SL,2,F,19,R,2025-06-24_15h24.16.845,RewSL_SL_EEG,
ping,high,downRight,DOWN,green,l,lowA,Stimuli\green_bar1.png,Stimuli\green_bar1.png,Stimuli\ping.png,downLeft,lowB,midRight,lowC,midLeft,upLeft,upRight,4,m,,,,,0,51,51,31,,,0.4,0.7,exp,m,1,7.16,-7.16,-7.16,-7.16,10.14,0,-10.14,0,-7.16,7.16,7.16,7.16,8,248,0.7380883000005269,251,252,2,SL,2,F,19,R,2025-06-24_15h24.16.845,RewSL_SL_EEG,
ping,lowC,midLeft,UP,green,l,lowA,Stimuli\green_bar1.png,Stimuli\green_bar1.png,Stimuli\ping.png,downLeft,lowB,midRight,high,downRight,upLeft,upRight,4,z,,,,,0,52,52,85,,,0.4,0.7,exp,z,1,-10.14,0,-7.16,-7.16,10.14,0,7.16,-7.16,-7.16,7.16,7.16,7.16,8,118,0.6860589999996591,252,253,2,SL,2,F,19,R,2025-06-24_15h24.16.845,RewSL_SL_EEG,
ping,high,downRight,UP,green,l,lowA,Stimuli\green_bar1.png,Stimuli\green_bar1.png,Stimuli\ping.png,downLeft,lowB,midRight,lowC,midLeft,upLeft,upRight,4,z,,,,,0,53,53,29,,,0.5,0.8,exp,z,1,7.16,-7.16,-7.16,-7.16,10.14,0,-10.14,0,-7.16,7.16,7.16,7.16,8,148,0.7045950000028824,253,254,2,SL,2,F,19,R,2025-06-24_15h24.16.845,RewSL_SL_EEG,
ping,lowB,midRight,UP,red,r,lowA,Stimuli\red_bar1.png,Stimuli\red_bar1.png,Stimuli\ping.png,downLeft,high,downRight,lowC,midLeft,upLeft,upRight,4,z,,,,,0,54,54,80,,,0.5,0.6,exp,z,1,10.14,0,-7.16,-7.16,7.16,-7.16,-10.14,0,-7.16,7.16,7.16,7.16,8,128,0.6380873000016436,254,255,2,SL,2,F,19,R,2025-06-24_15h24.16.845,RewSL_SL_EEG,
ping,lowA,downLeft,UP,green,l,high,Stimuli\green_bar1.png,Stimuli\green_bar1.png,Stimuli\ping.png,downRight,lowB,midRight,lowC,midLeft,upLeft,upRight,4,z,,,,,0,55,55,53,,,0.5,0.8,exp,z,1,-7.16,-7.16,7.16,-7.16,10.14,0,-10.14,0,-7.16,7.16,7.16,7.16,8,138,0.8385783999983687,255,256,2,SL,2,F,19,R,2025-06-24_15h24.16.845,RewSL_SL_EEG,
ping,high,downRight,DOWN,red,l,lowA,Stimuli\red_bar1.png,Stimuli\red_bar1.png,Stimuli\ping.png,downLeft,lowB,midRight,lowC,midLeft,upLeft,upRight,4,m,,,,,0,56,56,46,,,0.5,0.8,exp,m,1,7.16,-7.16,-7.16,-7.16,10.14,0,-10.14,0,-7.16,7.16,7.16,7.16,8,248,0.6213228999986313,256,257,2,SL,2,F,19,R,2025-06-24_15h24.16.845,RewSL_SL_EEG,
ping,lowC,midLeft,UP,green,r,lowA,Stimuli\green_bar1.png,Stimuli\green_bar1.png,Stimuli\ping.png,downLeft,lowB,midRight,high,downRight,upLeft,upRight,4,z,,,,,0,57,57,89,,,0.6,0.7,exp,z,1,-10.14,0,-7.16,-7.16,10.14,0,7.16,-7.16,-7.16,7.16,7.16,7.16,8,118,0.796500800002832,257,258,2,SL,2,F,19,R,2025-06-24_15h24.16.845,RewSL_SL_EEG,
ping,lowA,downLeft,DOWN,green,l,high,Stimuli\green_bar1.png,Stimuli\green_bar1.png,Stimuli\ping.png,downRight,lowB,midRight,lowC,midLeft,upLeft,upRight,4,m,,,,,0,58,58,63,,,0.6,0.7,exp,z,0,-7.16,-7.16,7.16,-7.16,10.14,0,-10.14,0,-7.16,7.16,7.16,7.16,8,238,0.7307384000014281,258,259,2,SL,2,F,19,R,2025-06-24_15h24.16.845,RewSL_SL_EEG,
ping,lowB,midRight,DOWN,green,l,lowA,Stimuli\green_bar1.png,Stimuli\green_bar1.png,Stimuli\ping.png,downLeft,high,downRight,lowC,midLeft,upLeft,upRight,4,m,,,,,0,59,59,79,,,0.5,0.7,exp,m,1,10.14,0,-7.16,-7.16,7.16,-7.16,-10.14,0,-7.16,7.16,7.16,7.16,8,228,0.6804312000022037,259,260,2,SL,2,F,19,R,2025-06-24_15h24.16.845,RewSL_SL_EEG,
ping,high,downRight,UP,green,r,lowA,Stimuli\green_bar1.png,Stimuli\green_bar1.png,Stimuli\ping.png,downLeft,lowB,midRight,lowC,midLeft,upLeft,upRight,4,z,,,,,0,60,60,17,,,0.5,0.6,exp,z,1,7.16,-7.16,-7.16,-7.16,10.14,0,-10.14,0,-7.16,7.16,7.16,7.16,8,148,0.7298903000046266,260,261,2,SL,2,F,19,R,2025-06-24_15h24.16.845,RewSL_SL_EEG,
ping,lowA,downLeft,DOWN,red,l,high,Stimuli\red_bar1.png,Stimuli\red_bar1.png,Stimuli\ping.png,downRight,lowB,midRight,lowC,midLeft,upLeft,upRight,4,m,,,,,0,61,61,54,,,0.4,0.6,exp,m,1,-7.16,-7.16,7.16,-7.16,10.14,0,-10.14,0,-7.16,7.16,7.16,7.16,8,238,0.5861942999908933,261,262,2,SL,2,F,19,R,2025-06-24_15h24.16.845,RewSL_SL_EEG,
ping,lowA,downLeft,DOWN,green,l,high,Stimuli\green_bar1.png,Stimuli\green_bar1.png,Stimuli\ping.png,downRight,lowB,midRight,lowC,midLeft,upLeft,upRight,4,m,,,,,0,62,62,55,,,0.5,0.8,exp,m,1,-7.16,-7.16,7.16,-7.16,10.14,0,-10.14,0,-7.16,7.16,7.16,7.16,8,238,0.521208200007095,262,263,2,SL,2,F,19,R,2025-06-24_15h24.16.845,RewSL_SL_EEG,
ping,lowC,midLeft,UP,red,l,lowA,Stimuli\red_bar1.png,Stimuli\red_bar1.png,Stimuli\ping.png,downLeft,lowB,midRight,high,downRight,upLeft,upRight,4,z,,,,,0,63,63,92,,,0.5,0.7,exp,z,1,-10.14,0,-7.16,-7.16,10.14,0,7.16,-7.16,-7.16,7.16,7.16,7.16,8,118,0.6632567000051495,263,264,2,SL,2,F,19,R,2025-06-24_15h24.16.845,RewSL_SL_EEG,
ping,lowA,downLeft,UP,red,l,high,Stimuli\red_bar1.png,Stimuli\red_bar1.png,Stimuli\ping.png,downRight,lowB,midRight,lowC,midLeft,upLeft,upRight,4,z,,,,,0,64,64,60,,,0.6,0.6,exp,z,1,-7.16,-7.16,7.16,-7.16,10.14,0,-10.14,0,-7.16,7.16,7.16,7.16,8,138,0.6924371000059182,264,265,2,SL,2,F,19,R,2025-06-24_15h24.16.845,RewSL_SL_EEG,
ping,high,downRight,DOWN,green,l,lowA,Stimuli\green_bar1.png,Stimuli\green_bar1.png,Stimuli\ping.png,downLeft,lowB,midRight,lowC,midLeft,upLeft,upRight,4,m,,,,,0,65,65,39,,,0.5,0.7,exp,m,1,7.16,-7.16,-7.16,-7.16,10.14,0,-10.14,0,-7.16,7.16,7.16,7.16,8,248,1.1613645999896107,265,266,2,SL,2,F,19,R,2025-06-24_15h24.16.845,RewSL_SL_EEG,
ping,high,downRight,DOWN,green,l,lowA,Stimuli\green_bar1.png,Stimuli\green_bar1.png,Stimuli\ping.png,downLeft,lowB,midRight,lowC,midLeft,upLeft,upRight,4,m,,,,,0,66,66,7,,,0.5,0.7,exp,m,1,7.16,-7.16,-7.16,-7.16,10.14,0,-10.14,0,-7.16,7.16,7.16,7.16,8,248,0.5969670999911614,266,267,2,SL,2,F,19,R,2025-06-24_15h24.16.845,RewSL_SL_EEG,
ping,lowC,midLeft,DOWN,green,r,lowA,Stimuli\green_bar1.png,Stimuli\green_bar1.png,Stimuli\ping.png,downLeft,lowB,midRight,high,downRight,upLeft,upRight,4,m,,,,,0,67,67,91,,,0.5,0.8,exp,m,1,-10.14,0,-7.16,-7.16,10.14,0,7.16,-7.16,-7.16,7.16,7.16,7.16,8,218,0.6548258999973768,267,268,2,SL,2,F,19,R,2025-06-24_15h24.16.845,RewSL_SL_EEG,
ping,lowA,downLeft,DOWN,red,r,high,Stimuli\red_bar1.png,Stimuli\red_bar1.png,Stimuli\ping.png,downRight,lowB,midRight,lowC,midLeft,upLeft,upRight,4,m,,,,,0,68,68,66,,,0.5,0.8,exp,m,1,-7.16,-7.16,7.16,-7.16,10.14,0,-10.14,0,-7.16,7.16,7.16,7.16,8,238,0.6940437000012025,268,269,2,SL,2,F,19,R,2025-06-24_15h24.16.845,RewSL_SL_EEG,
ping,high,downRight,UP,green,l,lowA,Stimuli\green_bar1.png,Stimuli\green_bar1.png,Stimuli\ping.png,downLeft,lowB,midRight,lowC,midLeft,upLeft,upRight,4,z,,,,,0,69,69,45,,,0.6,0.7,exp,z,1,7.16,-7.16,-7.16,-7.16,10.14,0,-10.14,0,-7.16,7.16,7.16,7.16,8,148,0.7210835000005318,269,270,2,SL,2,F,19,R,2025-06-24_15h24.16.845,RewSL_SL_EEG,
ping,high,downRight,DOWN,red,r,lowA,Stimuli\red_bar1.png,Stimuli\red_bar1.png,Stimuli\ping.png,downLeft,lowB,midRight,lowC,midLeft,upLeft,upRight,4,m,,,,,0,70,70,50,,,0.5,0.8,exp,m,1,7.16,-7.16,-7.16,-7.16,10.14,0,-10.14,0,-7.16,7.16,7.16,7.16,8,248,0.5043413000094006,270,271,2,SL,2,F,19,R,2025-06-24_15h24.16.845,RewSL_SL_EEG,
ping,lowA,downLeft,UP,red,r,high,Stimuli\red_bar1.png,Stimuli\red_bar1.png,Stimuli\ping.png,downRight,lowB,midRight,lowC,midLeft,upLeft,upRight,4,z,,,,,0,71,71,64,,,0.4,0.8,exp,z,1,-7.16,-7.16,7.16,-7.16,10.14,0,-10.14,0,-7.16,7.16,7.16,7.16,8,138,0.6469859999924665,271,272,2,SL,2,F,19,R,2025-06-24_15h24.16.845,RewSL_SL_EEG,
ping,lowB,midRight,UP,green,r,lowA,Stimuli\green_bar1.png,Stimuli\green_bar1.png,Stimuli\ping.png,downLeft,high,downRight,lowC,midLeft,upLeft,upRight,4,z,,,,,0,72,72,81,,,0.6,0.7,exp,z,1,10.14,0,-7.16,-7.16,7.16,-7.16,-10.14,0,-7.16,7.16,7.16,7.16,8,128,0.8869173000130104,272,273,2,SL,2,F,19,R,2025-06-24_15h24.16.845,RewSL_SL_EEG,
ping,high,downRight,DOWN,green,r,lowA,Stimuli\green_bar1.png,Stimuli\green_bar1.png,Stimuli\ping.png,downLeft,lowB,midRight,lowC,midLeft,upLeft,upRight,4,m,,,,,0,73,73,19,,,0.5,0.8,exp,m,1,7.16,-7.16,-7.16,-7.16,10.14,0,-10.14,0,-7.16,7.16,7.16,7.16,8,248,0.5723856000113301,273,274,2,SL,2,F,19,R,2025-06-24_15h24.16.845,RewSL_SL_EEG,
ping,lowC,midLeft,UP,red,l,lowA,Stimuli\red_bar1.png,Stimuli\red_bar1.png,Stimuli\ping.png,downLeft,lowB,midRight,high,downRight,upLeft,upRight,4,z,,,,,0,74,74,84,,,0.5,0.8,exp,z,1,-10.14,0,-7.16,-7.16,10.14,0,7.16,-7.16,-7.16,7.16,7.16,7.16,8,118,0.6251958000066224,274,275,2,SL,2,F,19,R,2025-06-24_15h24.16.845,RewSL_SL_EEG,
ping,lowB,midRight,UP,green,l,lowA,Stimuli\green_bar1.png,Stimuli\green_bar1.png,Stimuli\ping.png,downLeft,high,downRight,lowC,midLeft,upLeft,upRight,4,z,,,,,0,75,75,69,,,0.6,0.8,exp,z,1,10.14,0,-7.16,-7.16,7.16,-7.16,-10.14,0,-7.16,7.16,7.16,7.16,8,128,0.7137268999940716,275,276,2,SL,2,F,19,R,2025-06-24_15h24.16.845,RewSL_SL_EEG,
ping,high,downRight,UP,red,r,lowA,Stimuli\red_bar1.png,Stimuli\red_bar1.png,Stimuli\ping.png,downLeft,lowB,midRight,lowC,midLeft,upLeft,upRight,4,z,,,,,0,76,76,40,,,0.4,0.6,exp,z,1,7.16,-7.16,-7.16,-7.16,10.14,0,-10.14,0,-7.16,7.16,7.16,7.16,8,148,0.9042482999939239,276,277,2,SL,2,F,19,R,2025-06-24_15h24.16.845,RewSL_SL_EEG,
ping,lowB,midRight,DOWN,red,r,lowA,Stimuli\red_bar1.png,Stimuli\red_bar1.png,Stimuli\ping.png,downLeft,high,downRight,lowC,midLeft,upLeft,upRight,4,m,,,,,0,77,77,74,,,0.4,0.6,exp,m,1,10.14,0,-7.16,-7.16,7.16,-7.16,-10.14,0,-7.16,7.16,7.16,7.16,8,228,0.5625373999937437,277,278,2,SL,2,F,19,R,2025-06-24_15h24.16.845,RewSL_SL_EEG,
ping,high,downRight,DOWN,green,r,lowA,Stimuli\green_bar1.png,Stimuli\green_bar1.png,Stimuli\ping.png,downLeft,lowB,midRight,lowC,midLeft,upLeft,upRight,4,m,,,,,0,78,78,11,,,0.6,0.8,exp,m,1,7.16,-7.16,-7.16,-7.16,10.14,0,-10.14,0,-7.16,7.16,7.16,7.16,8,248,0.7672668999875896,278,279,2,SL,2,F,19,R,2025-06-24_15h24.16.845,RewSL_SL_EEG,
ping,lowC,midLeft,DOWN,red,r,lowA,Stimuli\red_bar1.png,Stimuli\red_bar1.png,Stimuli\ping.png,downLeft,lowB,midRight,high,downRight,upLeft,upRight,4,m,,,,,0,79,79,98,,,0.4,0.7,exp,m,1,-10.14,0,-7.16,-7.16,10.14,0,7.16,-7.16,-7.16,7.16,7.16,7.16,8,218,0.6958133000007365,279,280,2,SL,2,F,19,R,2025-06-24_15h24.16.845,RewSL_SL_EEG,
ping,high,downRight,DOWN,red,l,lowA,Stimuli\red_bar1.png,Stimuli\red_bar1.png,Stimuli\ping.png,downLeft,lowB,midRight,lowC,midLeft,upLeft,upRight,4,m,,,,,0,80,80,38,,,0.5,0.7,exp,m,1,7.16,-7.16,-7.16,-7.16,10.14,0,-10.14,0,-7.16,7.16,7.16,7.16,8,248,0.9418235000048298,280,281,2,SL,2,F,19,R,2025-06-24_15h24.16.845,RewSL_SL_EEG,
ping,high,downRight,DOWN,green,r,lowA,Stimuli\green_bar1.png,Stimuli\green_bar1.png,Stimuli\ping.png,downLeft,lowB,midRight,lowC,midLeft,upLeft,upRight,4,m,,,,,0,81,81,3,,,0.4,0.7,exp,m,1,7.16,-7.16,-7.16,-7.16,10.14,0,-10.14,0,-7.16,7.16,7.16,7.16,8,248,0.671287699995446,281,282,2,SL,2,F,19,R,2025-06-24_15h24.16.845,RewSL_SL_EEG,
ping,high,downRight,DOWN,green,l,lowA,Stimuli\green_bar1.png,Stimuli\green_bar1.png,Stimuli\ping.png,downLeft,lowB,midRight,lowC,midLeft,upLeft,upRight,4,m,,,,,0,82,82,47,,,0.4,0.6,exp,m,1,7.16,-7.16,-7.16,-7.16,10.14,0,-10.14,0,-7.16,7.16,7.16,7.16,8,248,0.5994671999942511,282,283,2,SL,2,F,19,R,2025-06-24_15h24.16.845,RewSL_SL_EEG,
ping,high,downRight,DOWN,green,r,lowA,Stimuli\green_bar1.png,Stimuli\green_bar1.png,Stimuli\ping.png,downLeft,lowB,midRight,lowC,midLeft,upLeft,upRight,4,m,,,,,0,83,83,51,,,0.6,0.7,exp,m,1,7.16,-7.16,-7.16,-7.16,10.14,0,-10.14,0,-7.16,7.16,7.16,7.16,8,248,1.2804230000037933,283,284,2,SL,2,F,19,R,2025-06-24_15h24.16.845,RewSL_SL_EEG,
ping,high,downRight,DOWN,red,r,lowA,Stimuli\red_bar1.png,Stimuli\red_bar1.png,Stimuli\ping.png,downLeft,lowB,midRight,lowC,midLeft,upLeft,upRight,4,m,,,,,0,84,84,2,,,0.5,0.6,exp,m,1,7.16,-7.16,-7.16,-7.16,10.14,0,-10.14,0,-7.16,7.16,7.16,7.16,8,248,0.6409194000007119,284,285,2,SL,2,F,19,R,2025-06-24_15h24.16.845,RewSL_SL_EEG,
