trial_type,t_frequency,targetPos,Gap,arrayColor,targetOri,f1_frequency,TargetFile,stimuliFile,pingFile,f1_pos,f2_frequency,f2_pos,f3_frequency,f3_pos,f4_pos,f5_pos,Slblock,corrAns,trials_p.thisRepN,trials_p.thisTrialN,trials_p.thisN,trials_p.thisIndex,trials_e.thisRepN,trials_e.thisTrialN,trials_e.thisN,trials_e.thisIndex,thisRow.t,notes,FIX,PINGdur,epoch,key_resp.keys,key_resp.corr,key_resp.rt,targetX,targetY,filler1X,filler1Y,filler2X,filler2Y,filler3X,filler3Y,filler4X,filler4Y,filler5X,filler5Y,pingID,ID,completed_trials,trial_count,participant,learning,session_nr,gender,age,handedness,date,expName,
ping,high,midLeft,UP,red,r,lowA,Stimuli\red_bar1.png,Stimuli\red_bar1.png,Stimuli\ping.png,midRight,lowB,downLeft,lowC,downRight,upLeft,upRight,1,z,0,0,0,0,,,,,,,0.6,0.7,practice,m,0,1.2325216000008368,-10.14,0,10.14,0,-7.16,-7.16,7.16,-7.16,-7.16,7.16,7.16,7.16,2,112,,,3,SL,2,M,29,R,2025-04-17_11h22.08.681,RewSL_SL_EEG,
ping,high,midLeft,DOWN,green,r,lowA,Stimuli\green_bar1.png,Stimuli\green_bar1.png,Stimuli\ping.png,midRight,lowB,downLeft,lowC,downRight,upLeft,upRight,1,m,0,1,1,3,,,,,,,0.6,0.8,practice,m,1,0.8897428999989643,-10.14,0,10.14,0,-7.16,-7.16,7.16,-7.16,-7.16,7.16,7.16,7.16,2,212,,,3,SL,2,M,29,R,2025-04-17_11h22.08.681,RewSL_SL_EEG,
ping,lowA,midRight,DOWN,red,l,high,Stimuli\red_bar1.png,Stimuli\red_bar1.png,Stimuli\ping.png,midLeft,lowB,downLeft,lowC,downRight,upLeft,upRight,1,m,0,2,2,6,,,,,,,0.5,0.7,practice,m,1,0.9601017999993928,10.14,0,-10.14,0,-7.16,-7.16,7.16,-7.16,-7.16,7.16,7.16,7.16,2,222,,,3,SL,2,M,29,R,2025-04-17_11h22.08.681,RewSL_SL_EEG,
ping,lowC,downRight,DOWN,red,l,lowA,Stimuli\red_bar1.png,Stimuli\red_bar1.png,Stimuli\ping.png,midRight,lowB,downLeft,high,midLeft,upLeft,upRight,1,m,0,3,3,14,,,,,,,0.4,0.6,practice,m,1,1.0477851999985432,7.16,-7.16,10.14,0,-7.16,-7.16,-10.14,0,-7.16,7.16,7.16,7.16,2,242,,,3,SL,2,M,29,R,2025-04-17_11h22.08.681,RewSL_SL_EEG,
ping,high,midLeft,DOWN,red,r,lowA,Stimuli\red_bar1.png,Stimuli\red_bar1.png,Stimuli\ping.png,midRight,lowB,downLeft,lowC,downRight,upLeft,upRight,1,m,0,4,4,2,,,,,,,0.5,0.7,practice,None,0,,-10.14,0,10.14,0,-7.16,-7.16,7.16,-7.16,-7.16,7.16,7.16,7.16,2,212,,,3,SL,2,M,29,R,2025-04-17_11h22.08.681,RewSL_SL_EEG,
ping,lowB,downLeft,UP,green,l,lowA,Stimuli\green_bar1.png,Stimuli\green_bar1.png,Stimuli\ping.png,midRight,high,midLeft,lowC,downRight,upLeft,upRight,1,z,0,5,5,9,,,,,,,0.5,0.6,practice,m,0,1.160312399999384,-7.16,-7.16,10.14,0,-10.14,0,7.16,-7.16,-7.16,7.16,7.16,7.16,2,132,,,3,SL,2,M,29,R,2025-04-17_11h22.08.681,RewSL_SL_EEG,
ping,lowC,downRight,DOWN,green,l,lowA,Stimuli\green_bar1.png,Stimuli\green_bar1.png,Stimuli\ping.png,midRight,lowB,downLeft,high,midLeft,upLeft,upRight,1,m,0,6,6,15,,,,,,,0.4,0.7,practice,m,1,0.9149887000003218,7.16,-7.16,10.14,0,-7.16,-7.16,-10.14,0,-7.16,7.16,7.16,7.16,2,242,,,3,SL,2,M,29,R,2025-04-17_11h22.08.681,RewSL_SL_EEG,
ping,lowC,downRight,UP,green,l,lowA,Stimuli\green_bar1.png,Stimuli\green_bar1.png,Stimuli\ping.png,midRight,lowB,downLeft,high,midLeft,upLeft,upRight,1,z,0,7,7,13,,,,,,,0.5,0.7,practice,z,1,0.8730900999998994,7.16,-7.16,10.14,0,-7.16,-7.16,-10.14,0,-7.16,7.16,7.16,7.16,2,142,,,3,SL,2,M,29,R,2025-04-17_11h22.08.681,RewSL_SL_EEG,
ping,lowB,downLeft,UP,red,l,lowA,Stimuli\red_bar1.png,Stimuli\red_bar1.png,Stimuli\ping.png,midRight,high,midLeft,lowC,downRight,upLeft,upRight,1,z,0,8,8,8,,,,,,,0.5,0.6,practice,z,1,1.2356331999999384,-7.16,-7.16,10.14,0,-10.14,0,7.16,-7.16,-7.16,7.16,7.16,7.16,2,132,,,3,SL,2,M,29,R,2025-04-17_11h22.08.681,RewSL_SL_EEG,
ping,lowB,downLeft,DOWN,green,l,lowA,Stimuli\green_bar1.png,Stimuli\green_bar1.png,Stimuli\ping.png,midRight,high,midLeft,lowC,downRight,upLeft,upRight,1,m,0,9,9,11,,,,,,,0.5,0.6,practice,None,0,,-7.16,-7.16,10.14,0,-10.14,0,7.16,-7.16,-7.16,7.16,7.16,7.16,2,232,,,3,SL,2,M,29,R,2025-04-17_11h22.08.681,RewSL_SL_EEG,
ping,lowC,downRight,UP,red,l,lowA,Stimuli\red_bar1.png,Stimuli\red_bar1.png,Stimuli\ping.png,midRight,lowB,downLeft,high,midLeft,upLeft,upRight,1,z,0,10,10,12,,,,,,,0.5,0.6,practice,z,1,0.9322556000006443,7.16,-7.16,10.14,0,-7.16,-7.16,-10.14,0,-7.16,7.16,7.16,7.16,2,142,,,3,SL,2,M,29,R,2025-04-17_11h22.08.681,RewSL_SL_EEG,
ping,lowA,midRight,UP,green,l,high,Stimuli\green_bar1.png,Stimuli\green_bar1.png,Stimuli\ping.png,midLeft,lowB,downLeft,lowC,downRight,upLeft,upRight,1,z,0,11,11,5,,,,,,,0.5,0.6,practice,z,1,1.1184748999985459,10.14,0,-10.14,0,-7.16,-7.16,7.16,-7.16,-7.16,7.16,7.16,7.16,2,122,,,3,SL,2,M,29,R,2025-04-17_11h22.08.681,RewSL_SL_EEG,
ping,lowA,midRight,UP,red,l,high,Stimuli\red_bar1.png,Stimuli\red_bar1.png,Stimuli\ping.png,midLeft,lowB,downLeft,lowC,downRight,upLeft,upRight,1,z,0,12,12,4,,,,,,,0.6,0.7,practice,z,1,0.8312046999999438,10.14,0,-10.14,0,-7.16,-7.16,7.16,-7.16,-7.16,7.16,7.16,7.16,2,122,,,3,SL,2,M,29,R,2025-04-17_11h22.08.681,RewSL_SL_EEG,
ping,high,midLeft,UP,green,r,lowA,Stimuli\green_bar1.png,Stimuli\green_bar1.png,Stimuli\ping.png,midRight,lowB,downLeft,lowC,downRight,upLeft,upRight,1,z,0,13,13,1,,,,,,,0.5,0.8,practice,m,0,0.9974497999992309,-10.14,0,10.14,0,-7.16,-7.16,7.16,-7.16,-7.16,7.16,7.16,7.16,2,112,,,3,SL,2,M,29,R,2025-04-17_11h22.08.681,RewSL_SL_EEG,
ping,lowB,downLeft,DOWN,red,l,lowA,Stimuli\red_bar1.png,Stimuli\red_bar1.png,Stimuli\ping.png,midRight,high,midLeft,lowC,downRight,upLeft,upRight,1,m,0,14,14,10,,,,,,,0.6,0.7,practice,m,1,0.881134799999927,-7.16,-7.16,10.14,0,-10.14,0,7.16,-7.16,-7.16,7.16,7.16,7.16,2,232,,,3,SL,2,M,29,R,2025-04-17_11h22.08.681,RewSL_SL_EEG,
ping,lowA,midRight,DOWN,green,l,high,Stimuli\green_bar1.png,Stimuli\green_bar1.png,Stimuli\ping.png,midLeft,lowB,downLeft,lowC,downRight,upLeft,upRight,1,m,0,15,15,7,,,,,,,0.6,0.7,practice,m,1,1.135853899999347,10.14,0,-10.14,0,-7.16,-7.16,7.16,-7.16,-7.16,7.16,7.16,7.16,2,222,,,3,SL,2,M,29,R,2025-04-17_11h22.08.681,RewSL_SL_EEG,
ping,lowB,downRight,UP,green,l,lowA,Stimuli\green_bar1.png,Stimuli\green_bar1.png,Stimuli\ping.png,midLeft,high,midRight,lowC,downLeft,upLeft,upRight,2,z,,,,,0,0,0,81,,,0.6,0.7,exp,m,0,0.9101399000010133,7.16,-7.16,-10.14,0,10.14,0,-7.16,-7.16,-7.16,7.16,7.16,7.16,4,144,0,1,3,SL,2,M,29,R,2025-04-17_11h22.08.681,RewSL_SL_EEG,
ping,lowA,midLeft,DOWN,green,r,high,Stimuli\green_bar1.png,Stimuli\green_bar1.png,Stimuli\ping.png,midRight,lowB,downRight,lowC,downLeft,upLeft,upRight,2,m,,,,,0,1,1,63,,,0.6,0.6,exp,m,1,0.8225793999990856,-10.14,0,10.14,0,7.16,-7.16,-7.16,-7.16,-7.16,7.16,7.16,7.16,4,214,1,2,3,SL,2,M,29,R,2025-04-17_11h22.08.681,RewSL_SL_EEG,
ping,high,midRight,DOWN,red,r,lowA,Stimuli\red_bar1.png,Stimuli\red_bar1.png,Stimuli\ping.png,midLeft,lowB,downRight,lowC,downLeft,upLeft,upRight,2,m,,,,,0,2,2,38,,,0.4,0.6,exp,m,1,0.7853180999991309,10.14,0,-10.14,0,7.16,-7.16,-7.16,-7.16,-7.16,7.16,7.16,7.16,4,224,2,3,3,SL,2,M,29,R,2025-04-17_11h22.08.681,RewSL_SL_EEG,
ping,high,midRight,DOWN,red,l,lowA,Stimuli\red_bar1.png,Stimuli\red_bar1.png,Stimuli\ping.png,midLeft,lowB,downRight,lowC,downLeft,upLeft,upRight,2,m,,,,,0,3,3,18,,,0.4,0.8,exp,None,0,,10.14,0,-10.14,0,7.16,-7.16,-7.16,-7.16,-7.16,7.16,7.16,7.16,4,224,3,4,3,SL,2,M,29,R,2025-04-17_11h22.08.681,RewSL_SL_EEG,
ping,high,midRight,DOWN,green,l,lowA,Stimuli\green_bar1.png,Stimuli\green_bar1.png,Stimuli\ping.png,midLeft,lowB,downRight,lowC,downLeft,upLeft,upRight,2,m,,,,,0,4,4,27,,,0.5,0.7,exp,m,1,0.8691376999995555,10.14,0,-10.14,0,7.16,-7.16,-7.16,-7.16,-7.16,7.16,7.16,7.16,4,224,4,5,3,SL,2,M,29,R,2025-04-17_11h22.08.681,RewSL_SL_EEG,
ping,lowA,midLeft,DOWN,red,r,high,Stimuli\red_bar1.png,Stimuli\red_bar1.png,Stimuli\ping.png,midRight,lowB,downRight,lowC,downLeft,upLeft,upRight,2,m,,,,,0,5,5,54,,,0.5,0.8,exp,m,1,0.8402520999989065,-10.14,0,10.14,0,7.16,-7.16,-7.16,-7.16,-7.16,7.16,7.16,7.16,4,214,5,6,3,SL,2,M,29,R,2025-04-17_11h22.08.681,RewSL_SL_EEG,
ping,lowA,midLeft,UP,green,l,high,Stimuli\green_bar1.png,Stimuli\green_bar1.png,Stimuli\ping.png,midRight,lowB,downRight,lowC,downLeft,upLeft,upRight,2,z,,,,,0,6,6,57,,,0.6,0.7,exp,z,1,0.7347922000008111,-10.14,0,10.14,0,7.16,-7.16,-7.16,-7.16,-7.16,7.16,7.16,7.16,4,114,6,7,3,SL,2,M,29,R,2025-04-17_11h22.08.681,RewSL_SL_EEG,
ping,lowC,downLeft,UP,green,l,lowA,Stimuli\green_bar1.png,Stimuli\green_bar1.png,Stimuli\ping.png,midLeft,lowB,downRight,high,midRight,upLeft,upRight,2,z,,,,,0,7,7,89,,,0.6,0.8,exp,m,0,0.6848860999998578,-7.16,-7.16,-10.14,0,7.16,-7.16,10.14,0,-7.16,7.16,7.16,7.16,4,134,7,8,3,SL,2,M,29,R,2025-04-17_11h22.08.681,RewSL_SL_EEG,
ping,lowB,downRight,DOWN,red,l,lowA,Stimuli\red_bar1.png,Stimuli\red_bar1.png,Stimuli\ping.png,midLeft,high,midRight,lowC,downLeft,upLeft,upRight,2,m,,,,,0,8,8,74,,,0.6,0.7,exp,m,1,0.8311739000000671,7.16,-7.16,-10.14,0,10.14,0,-7.16,-7.16,-7.16,7.16,7.16,7.16,4,244,8,9,3,SL,2,M,29,R,2025-04-17_11h22.08.681,RewSL_SL_EEG,
ping,high,midRight,DOWN,green,r,lowA,Stimuli\green_bar1.png,Stimuli\green_bar1.png,Stimuli\ping.png,midLeft,lowB,downRight,lowC,downLeft,upLeft,upRight,2,m,,,,,0,9,9,47,,,0.5,0.7,exp,m,1,0.9354523999991216,10.14,0,-10.14,0,7.16,-7.16,-7.16,-7.16,-7.16,7.16,7.16,7.16,4,224,9,10,3,SL,2,M,29,R,2025-04-17_11h22.08.681,RewSL_SL_EEG,
ping,lowC,downLeft,DOWN,green,l,lowA,Stimuli\green_bar1.png,Stimuli\green_bar1.png,Stimuli\ping.png,midLeft,lowB,downRight,high,midRight,upLeft,upRight,2,m,,,,,0,10,10,99,,,0.5,0.8,exp,m,1,0.86826690000089,-7.16,-7.16,-10.14,0,7.16,-7.16,10.14,0,-7.16,7.16,7.16,7.16,4,234,10,11,3,SL,2,M,29,R,2025-04-17_11h22.08.681,RewSL_SL_EEG,
ping,high,midRight,UP,red,r,lowA,Stimuli\red_bar1.png,Stimuli\red_bar1.png,Stimuli\ping.png,midLeft,lowB,downRight,lowC,downLeft,upLeft,upRight,2,z,,,,,0,11,11,4,,,0.5,0.8,exp,z,1,0.7521170999989408,10.14,0,-10.14,0,7.16,-7.16,-7.16,-7.16,-7.16,7.16,7.16,7.16,4,124,11,12,3,SL,2,M,29,R,2025-04-17_11h22.08.681,RewSL_SL_EEG,
ping,lowA,midLeft,UP,red,l,high,Stimuli\red_bar1.png,Stimuli\red_bar1.png,Stimuli\ping.png,midRight,lowB,downRight,lowC,downLeft,upLeft,upRight,2,z,,,,,0,12,12,56,,,0.4,0.7,exp,z,1,0.8436163000005763,-10.14,0,10.14,0,7.16,-7.16,-7.16,-7.16,-7.16,7.16,7.16,7.16,4,114,12,13,3,SL,2,M,29,R,2025-04-17_11h22.08.681,RewSL_SL_EEG,
ping,lowA,midLeft,UP,green,l,high,Stimuli\green_bar1.png,Stimuli\green_bar1.png,Stimuli\ping.png,midRight,lowB,downRight,lowC,downLeft,upLeft,upRight,2,z,,,,,0,13,13,65,,,0.4,0.6,exp,m,0,1.0182179000003089,-10.14,0,10.14,0,7.16,-7.16,-7.16,-7.16,-7.16,7.16,7.16,7.16,4,114,13,14,3,SL,2,M,29,R,2025-04-17_11h22.08.681,RewSL_SL_EEG,
ping,lowA,midLeft,DOWN,green,l,high,Stimuli\green_bar1.png,Stimuli\green_bar1.png,Stimuli\ping.png,midRight,lowB,downRight,lowC,downLeft,upLeft,upRight,2,m,,,,,0,14,14,67,,,0.5,0.8,exp,m,1,0.9394519999987097,-10.14,0,10.14,0,7.16,-7.16,-7.16,-7.16,-7.16,7.16,7.16,7.16,4,214,14,15,3,SL,2,M,29,R,2025-04-17_11h22.08.681,RewSL_SL_EEG,
ping,high,midRight,DOWN,green,l,lowA,Stimuli\green_bar1.png,Stimuli\green_bar1.png,Stimuli\ping.png,midLeft,lowB,downRight,lowC,downLeft,upLeft,upRight,2,m,,,,,0,15,15,43,,,0.5,0.8,exp,m,1,1.0852537999999186,10.14,0,-10.14,0,7.16,-7.16,-7.16,-7.16,-7.16,7.16,7.16,7.16,4,224,15,16,3,SL,2,M,29,R,2025-04-17_11h22.08.681,RewSL_SL_EEG,
ping,high,midRight,UP,red,l,lowA,Stimuli\red_bar1.png,Stimuli\red_bar1.png,Stimuli\ping.png,midLeft,lowB,downRight,lowC,downLeft,upLeft,upRight,2,z,,,,,0,16,16,48,,,0.5,0.6,exp,z,1,0.7436259000005521,10.14,0,-10.14,0,7.16,-7.16,-7.16,-7.16,-7.16,7.16,7.16,7.16,4,124,16,17,3,SL,2,M,29,R,2025-04-17_11h22.08.681,RewSL_SL_EEG,
ping,high,midRight,UP,green,r,lowA,Stimuli\green_bar1.png,Stimuli\green_bar1.png,Stimuli\ping.png,midLeft,lowB,downRight,lowC,downLeft,upLeft,upRight,2,z,,,,,0,17,17,45,,,0.6,0.7,exp,m,0,1.16000189999977,10.14,0,-10.14,0,7.16,-7.16,-7.16,-7.16,-7.16,7.16,7.16,7.16,4,124,17,18,3,SL,2,M,29,R,2025-04-17_11h22.08.681,RewSL_SL_EEG,
ping,high,midRight,UP,green,l,lowA,Stimuli\green_bar1.png,Stimuli\green_bar1.png,Stimuli\ping.png,midLeft,lowB,downRight,lowC,downLeft,upLeft,upRight,2,z,,,,,0,18,18,1,,,0.6,0.8,exp,z,1,0.8687931999993452,10.14,0,-10.14,0,7.16,-7.16,-7.16,-7.16,-7.16,7.16,7.16,7.16,4,124,18,19,3,SL,2,M,29,R,2025-04-17_11h22.08.681,RewSL_SL_EEG,
ping,high,midRight,UP,red,l,lowA,Stimuli\red_bar1.png,Stimuli\red_bar1.png,Stimuli\ping.png,midLeft,lowB,downRight,lowC,downLeft,upLeft,upRight,2,z,,,,,0,19,19,8,,,0.4,0.7,exp,z,1,0.7229212000002008,10.14,0,-10.14,0,7.16,-7.16,-7.16,-7.16,-7.16,7.16,7.16,7.16,4,124,19,20,3,SL,2,M,29,R,2025-04-17_11h22.08.681,RewSL_SL_EEG,
ping,high,midRight,DOWN,green,r,lowA,Stimuli\green_bar1.png,Stimuli\green_bar1.png,Stimuli\ping.png,midLeft,lowB,downRight,lowC,downLeft,upLeft,upRight,2,m,,,,,0,20,20,31,,,0.5,0.6,exp,m,1,1.0847799999992276,10.14,0,-10.14,0,7.16,-7.16,-7.16,-7.16,-7.16,7.16,7.16,7.16,4,224,20,21,3,SL,2,M,29,R,2025-04-17_11h22.08.681,RewSL_SL_EEG,
ping,high,midRight,DOWN,green,l,lowA,Stimuli\green_bar1.png,Stimuli\green_bar1.png,Stimuli\ping.png,midLeft,lowB,downRight,lowC,downLeft,upLeft,upRight,2,m,,,,,0,21,21,11,,,0.6,0.7,exp,m,1,0.923443399999087,10.14,0,-10.14,0,7.16,-7.16,-7.16,-7.16,-7.16,7.16,7.16,7.16,4,224,21,22,3,SL,2,M,29,R,2025-04-17_11h22.08.681,RewSL_SL_EEG,
ping,lowA,midLeft,UP,green,r,high,Stimuli\green_bar1.png,Stimuli\green_bar1.png,Stimuli\ping.png,midRight,lowB,downRight,lowC,downLeft,upLeft,upRight,2,z,,,,,0,22,22,53,,,0.6,0.7,exp,z,1,0.7978536999999051,-10.14,0,10.14,0,7.16,-7.16,-7.16,-7.16,-7.16,7.16,7.16,7.16,4,114,22,23,3,SL,2,M,29,R,2025-04-17_11h22.08.681,RewSL_SL_EEG,
ping,high,midRight,DOWN,green,r,lowA,Stimuli\green_bar1.png,Stimuli\green_bar1.png,Stimuli\ping.png,midLeft,lowB,downRight,lowC,downLeft,upLeft,upRight,2,m,,,,,0,23,23,15,,,0.4,0.8,exp,m,1,0.9976535000005242,10.14,0,-10.14,0,7.16,-7.16,-7.16,-7.16,-7.16,7.16,7.16,7.16,4,224,23,24,3,SL,2,M,29,R,2025-04-17_11h22.08.681,RewSL_SL_EEG,
ping,lowB,downRight,UP,green,r,lowA,Stimuli\green_bar1.png,Stimuli\green_bar1.png,Stimuli\ping.png,midLeft,high,midRight,lowC,downLeft,upLeft,upRight,2,z,,,,,0,24,24,77,,,0.5,0.7,exp,m,0,1.03610000000117,7.16,-7.16,-10.14,0,10.14,0,-7.16,-7.16,-7.16,7.16,7.16,7.16,4,144,24,25,3,SL,2,M,29,R,2025-04-17_11h22.08.681,RewSL_SL_EEG,
ping,lowC,downLeft,UP,red,r,lowA,Stimuli\red_bar1.png,Stimuli\red_bar1.png,Stimuli\ping.png,midLeft,lowB,downRight,high,midRight,upLeft,upRight,2,z,,,,,0,25,25,92,,,0.5,0.7,exp,z,1,0.998305099999925,-7.16,-7.16,-10.14,0,7.16,-7.16,10.14,0,-7.16,7.16,7.16,7.16,4,134,25,26,3,SL,2,M,29,R,2025-04-17_11h22.08.681,RewSL_SL_EEG,
ping,lowA,midLeft,DOWN,red,r,high,Stimuli\red_bar1.png,Stimuli\red_bar1.png,Stimuli\ping.png,midRight,lowB,downRight,lowC,downLeft,upLeft,upRight,2,m,,,,,0,26,26,62,,,0.4,0.6,exp,m,1,0.9354154000011476,-10.14,0,10.14,0,7.16,-7.16,-7.16,-7.16,-7.16,7.16,7.16,7.16,4,214,26,27,3,SL,2,M,29,R,2025-04-17_11h22.08.681,RewSL_SL_EEG,
ping,high,midRight,UP,green,l,lowA,Stimuli\green_bar1.png,Stimuli\green_bar1.png,Stimuli\ping.png,midLeft,lowB,downRight,lowC,downLeft,upLeft,upRight,2,z,,,,,0,27,27,41,,,0.6,0.7,exp,m,0,0.8393958000015118,10.14,0,-10.14,0,7.16,-7.16,-7.16,-7.16,-7.16,7.16,7.16,7.16,4,124,27,28,3,SL,2,M,29,R,2025-04-17_11h22.08.681,RewSL_SL_EEG,
ping,high,midRight,DOWN,green,r,lowA,Stimuli\green_bar1.png,Stimuli\green_bar1.png,Stimuli\ping.png,midLeft,lowB,downRight,lowC,downLeft,upLeft,upRight,2,m,,,,,0,28,28,23,,,0.4,0.8,exp,m,1,0.9659033000007184,10.14,0,-10.14,0,7.16,-7.16,-7.16,-7.16,-7.16,7.16,7.16,7.16,4,224,28,29,3,SL,2,M,29,R,2025-04-17_11h22.08.681,RewSL_SL_EEG,
ping,high,midRight,DOWN,red,l,lowA,Stimuli\red_bar1.png,Stimuli\red_bar1.png,Stimuli\ping.png,midLeft,lowB,downRight,lowC,downLeft,upLeft,upRight,2,m,,,,,0,29,29,26,,,0.6,0.7,exp,m,1,0.83528540000043,10.14,0,-10.14,0,7.16,-7.16,-7.16,-7.16,-7.16,7.16,7.16,7.16,4,224,29,30,3,SL,2,M,29,R,2025-04-17_11h22.08.681,RewSL_SL_EEG,
ping,lowC,downLeft,DOWN,red,l,lowA,Stimuli\red_bar1.png,Stimuli\red_bar1.png,Stimuli\ping.png,midLeft,lowB,downRight,high,midRight,upLeft,upRight,2,m,,,,,0,30,30,98,,,0.5,0.7,exp,m,1,1.0319066000010935,-7.16,-7.16,-10.14,0,7.16,-7.16,10.14,0,-7.16,7.16,7.16,7.16,4,234,30,31,3,SL,2,M,29,R,2025-04-17_11h22.08.681,RewSL_SL_EEG,
ping,high,midRight,UP,green,l,lowA,Stimuli\green_bar1.png,Stimuli\green_bar1.png,Stimuli\ping.png,midLeft,lowB,downRight,lowC,downLeft,upLeft,upRight,2,z,,,,,0,31,31,49,,,0.5,0.7,exp,m,0,0.8310627999999269,10.14,0,-10.14,0,7.16,-7.16,-7.16,-7.16,-7.16,7.16,7.16,7.16,4,124,31,32,3,SL,2,M,29,R,2025-04-17_11h22.08.681,RewSL_SL_EEG,
ping,high,midRight,DOWN,red,r,lowA,Stimuli\red_bar1.png,Stimuli\red_bar1.png,Stimuli\ping.png,midLeft,lowB,downRight,lowC,downLeft,upLeft,upRight,2,m,,,,,0,32,32,14,,,0.4,0.7,exp,m,1,1.1727416000012454,10.14,0,-10.14,0,7.16,-7.16,-7.16,-7.16,-7.16,7.16,7.16,7.16,4,224,32,33,3,SL,2,M,29,R,2025-04-17_11h22.08.681,RewSL_SL_EEG,
ping,high,midRight,UP,green,r,lowA,Stimuli\green_bar1.png,Stimuli\green_bar1.png,Stimuli\ping.png,midLeft,lowB,downRight,lowC,downLeft,upLeft,upRight,2,z,,,,,0,33,33,21,,,0.4,0.7,exp,m,0,0.8767297000013059,10.14,0,-10.14,0,7.16,-7.16,-7.16,-7.16,-7.16,7.16,7.16,7.16,4,124,33,34,3,SL,2,M,29,R,2025-04-17_11h22.08.681,RewSL_SL_EEG,
ping,high,midRight,UP,red,l,lowA,Stimuli\red_bar1.png,Stimuli\red_bar1.png,Stimuli\ping.png,midLeft,lowB,downRight,lowC,downLeft,upLeft,upRight,2,z,,,,,0,34,34,32,,,0.5,0.8,exp,z,1,0.6398496999991039,10.14,0,-10.14,0,7.16,-7.16,-7.16,-7.16,-7.16,7.16,7.16,7.16,4,124,34,35,3,SL,2,M,29,R,2025-04-17_11h22.08.681,RewSL_SL_EEG,
ping,high,midRight,UP,green,l,lowA,Stimuli\green_bar1.png,Stimuli\green_bar1.png,Stimuli\ping.png,midLeft,lowB,downRight,lowC,downLeft,upLeft,upRight,2,z,,,,,0,35,35,33,,,0.6,0.8,exp,z,1,0.8441457000008086,10.14,0,-10.14,0,7.16,-7.16,-7.16,-7.16,-7.16,7.16,7.16,7.16,4,124,35,36,3,SL,2,M,29,R,2025-04-17_11h22.08.681,RewSL_SL_EEG,
ping,lowC,downLeft,UP,green,r,lowA,Stimuli\green_bar1.png,Stimuli\green_bar1.png,Stimuli\ping.png,midLeft,lowB,downRight,high,midRight,upLeft,upRight,2,z,,,,,0,36,36,85,,,0.4,0.6,exp,z,1,0.9060623000004853,-7.16,-7.16,-10.14,0,7.16,-7.16,10.14,0,-7.16,7.16,7.16,7.16,4,134,36,37,3,SL,2,M,29,R,2025-04-17_11h22.08.681,RewSL_SL_EEG,
ping,lowB,downRight,DOWN,green,l,lowA,Stimuli\green_bar1.png,Stimuli\green_bar1.png,Stimuli\ping.png,midLeft,high,midRight,lowC,downLeft,upLeft,upRight,2,m,,,,,0,37,37,83,,,0.5,0.7,exp,m,1,0.7697552999998152,7.16,-7.16,-10.14,0,10.14,0,-7.16,-7.16,-7.16,7.16,7.16,7.16,4,244,37,38,3,SL,2,M,29,R,2025-04-17_11h22.08.681,RewSL_SL_EEG,
ping,lowA,midLeft,UP,red,r,high,Stimuli\red_bar1.png,Stimuli\red_bar1.png,Stimuli\ping.png,midRight,lowB,downRight,lowC,downLeft,upLeft,upRight,2,z,,,,,0,38,38,60,,,0.6,0.6,exp,z,1,0.6146484000000783,-10.14,0,10.14,0,7.16,-7.16,-7.16,-7.16,-7.16,7.16,7.16,7.16,4,114,38,39,3,SL,2,M,29,R,2025-04-17_11h22.08.681,RewSL_SL_EEG,
ping,lowC,downLeft,UP,red,l,lowA,Stimuli\red_bar1.png,Stimuli\red_bar1.png,Stimuli\ping.png,midLeft,lowB,downRight,high,midRight,upLeft,upRight,2,z,,,,,0,39,39,96,,,0.5,0.7,exp,z,1,1.0227993999997125,-7.16,-7.16,-10.14,0,7.16,-7.16,10.14,0,-7.16,7.16,7.16,7.16,4,134,39,40,3,SL,2,M,29,R,2025-04-17_11h22.08.681,RewSL_SL_EEG,
ping,high,midRight,DOWN,red,l,lowA,Stimuli\red_bar1.png,Stimuli\red_bar1.png,Stimuli\ping.png,midLeft,lowB,downRight,lowC,downLeft,upLeft,upRight,2,m,,,,,0,40,40,10,,,0.4,0.7,exp,m,1,0.6807271999987279,10.14,0,-10.14,0,7.16,-7.16,-7.16,-7.16,-7.16,7.16,7.16,7.16,4,224,40,41,3,SL,2,M,29,R,2025-04-17_11h22.08.681,RewSL_SL_EEG,
ping,high,midRight,UP,red,r,lowA,Stimuli\red_bar1.png,Stimuli\red_bar1.png,Stimuli\ping.png,midLeft,lowB,downRight,lowC,downLeft,upLeft,upRight,2,z,,,,,0,41,41,36,,,0.5,0.6,exp,z,1,0.7409715000012511,10.14,0,-10.14,0,7.16,-7.16,-7.16,-7.16,-7.16,7.16,7.16,7.16,4,124,41,42,3,SL,2,M,29,R,2025-04-17_11h22.08.681,RewSL_SL_EEG,
ping,lowC,downLeft,UP,red,l,lowA,Stimuli\red_bar1.png,Stimuli\red_bar1.png,Stimuli\ping.png,midLeft,lowB,downRight,high,midRight,upLeft,upRight,2,z,,,,,0,42,42,88,,,0.5,0.8,exp,m,0,1.0765658000000258,-7.16,-7.16,-10.14,0,7.16,-7.16,10.14,0,-7.16,7.16,7.16,7.16,4,134,42,43,3,SL,2,M,29,R,2025-04-17_11h22.08.681,RewSL_SL_EEG,
ping,high,midRight,DOWN,red,r,lowA,Stimuli\red_bar1.png,Stimuli\red_bar1.png,Stimuli\ping.png,midLeft,lowB,downRight,lowC,downLeft,upLeft,upRight,2,m,,,,,0,43,43,6,,,0.6,0.6,exp,m,1,0.8099296000000322,10.14,0,-10.14,0,7.16,-7.16,-7.16,-7.16,-7.16,7.16,7.16,7.16,4,224,43,44,3,SL,2,M,29,R,2025-04-17_11h22.08.681,RewSL_SL_EEG,
ping,lowB,downRight,UP,red,r,lowA,Stimuli\red_bar1.png,Stimuli\red_bar1.png,Stimuli\ping.png,midLeft,high,midRight,lowC,downLeft,upLeft,upRight,2,z,,,,,0,44,44,68,,,0.6,0.7,exp,z,1,0.7975752000002103,7.16,-7.16,-10.14,0,10.14,0,-7.16,-7.16,-7.16,7.16,7.16,7.16,4,144,44,45,3,SL,2,M,29,R,2025-04-17_11h22.08.681,RewSL_SL_EEG,
ping,lowC,downLeft,DOWN,red,r,lowA,Stimuli\red_bar1.png,Stimuli\red_bar1.png,Stimuli\ping.png,midLeft,lowB,downRight,high,midRight,upLeft,upRight,2,m,,,,,0,45,45,94,,,0.4,0.7,exp,m,1,0.8645008999992569,-7.16,-7.16,-10.14,0,7.16,-7.16,10.14,0,-7.16,7.16,7.16,7.16,4,234,45,46,3,SL,2,M,29,R,2025-04-17_11h22.08.681,RewSL_SL_EEG,
ping,lowC,downLeft,UP,green,r,lowA,Stimuli\green_bar1.png,Stimuli\green_bar1.png,Stimuli\ping.png,midLeft,lowB,downRight,high,midRight,upLeft,upRight,2,z,,,,,0,46,46,93,,,0.5,0.8,exp,z,1,0.768712900000537,-7.16,-7.16,-10.14,0,7.16,-7.16,10.14,0,-7.16,7.16,7.16,7.16,4,134,46,47,3,SL,2,M,29,R,2025-04-17_11h22.08.681,RewSL_SL_EEG,
ping,lowA,midLeft,UP,red,r,high,Stimuli\red_bar1.png,Stimuli\red_bar1.png,Stimuli\ping.png,midRight,lowB,downRight,lowC,downLeft,upLeft,upRight,2,z,,,,,0,47,47,52,,,0.5,0.6,exp,z,1,0.7606245999995735,-10.14,0,10.14,0,7.16,-7.16,-7.16,-7.16,-7.16,7.16,7.16,7.16,4,114,47,48,3,SL,2,M,29,R,2025-04-17_11h22.08.681,RewSL_SL_EEG,
ping,lowB,downRight,DOWN,green,l,lowA,Stimuli\green_bar1.png,Stimuli\green_bar1.png,Stimuli\ping.png,midLeft,high,midRight,lowC,downLeft,upLeft,upRight,2,m,,,,,0,48,48,75,,,0.5,0.7,exp,m,1,0.8478493000002345,7.16,-7.16,-10.14,0,10.14,0,-7.16,-7.16,-7.16,7.16,7.16,7.16,4,244,48,49,3,SL,2,M,29,R,2025-04-17_11h22.08.681,RewSL_SL_EEG,
ping,lowB,downRight,UP,red,l,lowA,Stimuli\red_bar1.png,Stimuli\red_bar1.png,Stimuli\ping.png,midLeft,high,midRight,lowC,downLeft,upLeft,upRight,2,z,,,,,0,49,49,72,,,0.5,0.7,exp,z,1,0.7728509999997186,7.16,-7.16,-10.14,0,10.14,0,-7.16,-7.16,-7.16,7.16,7.16,7.16,4,144,49,50,3,SL,2,M,29,R,2025-04-17_11h22.08.681,RewSL_SL_EEG,
ping,lowA,midLeft,DOWN,red,l,high,Stimuli\red_bar1.png,Stimuli\red_bar1.png,Stimuli\ping.png,midRight,lowB,downRight,lowC,downLeft,upLeft,upRight,2,m,,,,,0,50,50,58,,,0.4,0.7,exp,m,1,0.931446300000971,-10.14,0,10.14,0,7.16,-7.16,-7.16,-7.16,-7.16,7.16,7.16,7.16,4,214,50,51,3,SL,2,M,29,R,2025-04-17_11h22.08.681,RewSL_SL_EEG,
ping,high,midRight,UP,green,r,lowA,Stimuli\green_bar1.png,Stimuli\green_bar1.png,Stimuli\ping.png,midLeft,lowB,downRight,lowC,downLeft,upLeft,upRight,2,z,,,,,0,51,51,5,,,0.5,0.8,exp,m,0,0.9821458000005805,10.14,0,-10.14,0,7.16,-7.16,-7.16,-7.16,-7.16,7.16,7.16,7.16,4,124,51,52,3,SL,2,M,29,R,2025-04-17_11h22.08.681,RewSL_SL_EEG,
ping,high,midRight,UP,green,l,lowA,Stimuli\green_bar1.png,Stimuli\green_bar1.png,Stimuli\ping.png,midLeft,lowB,downRight,lowC,downLeft,upLeft,upRight,2,z,,,,,0,52,52,9,,,0.6,0.6,exp,z,1,1.1098911999997654,10.14,0,-10.14,0,7.16,-7.16,-7.16,-7.16,-7.16,7.16,7.16,7.16,4,124,52,53,3,SL,2,M,29,R,2025-04-17_11h22.08.681,RewSL_SL_EEG,
ping,high,midRight,DOWN,red,r,lowA,Stimuli\red_bar1.png,Stimuli\red_bar1.png,Stimuli\ping.png,midLeft,lowB,downRight,lowC,downLeft,upLeft,upRight,2,m,,,,,0,53,53,46,,,0.4,0.6,exp,m,1,0.9139221000004909,10.14,0,-10.14,0,7.16,-7.16,-7.16,-7.16,-7.16,7.16,7.16,7.16,4,224,53,54,3,SL,2,M,29,R,2025-04-17_11h22.08.681,RewSL_SL_EEG,
ping,high,midRight,UP,green,l,lowA,Stimuli\green_bar1.png,Stimuli\green_bar1.png,Stimuli\ping.png,midLeft,lowB,downRight,lowC,downLeft,upLeft,upRight,2,z,,,,,0,54,54,17,,,0.6,0.8,exp,z,1,1.093906699999934,10.14,0,-10.14,0,7.16,-7.16,-7.16,-7.16,-7.16,7.16,7.16,7.16,4,124,54,55,3,SL,2,M,29,R,2025-04-17_11h22.08.681,RewSL_SL_EEG,
ping,lowA,midLeft,DOWN,green,l,high,Stimuli\green_bar1.png,Stimuli\green_bar1.png,Stimuli\ping.png,midRight,lowB,downRight,lowC,downLeft,upLeft,upRight,2,m,,,,,0,55,55,59,,,0.6,0.6,exp,m,1,0.7513681999989785,-10.14,0,10.14,0,7.16,-7.16,-7.16,-7.16,-7.16,7.16,7.16,7.16,4,214,55,56,3,SL,2,M,29,R,2025-04-17_11h22.08.681,RewSL_SL_EEG,
ping,lowC,downLeft,DOWN,green,l,lowA,Stimuli\green_bar1.png,Stimuli\green_bar1.png,Stimuli\ping.png,midLeft,lowB,downRight,high,midRight,upLeft,upRight,2,m,,,,,0,56,56,91,,,0.5,0.7,exp,z,0,1.234925499999008,-7.16,-7.16,-10.14,0,7.16,-7.16,10.14,0,-7.16,7.16,7.16,7.16,4,234,56,57,3,SL,2,M,29,R,2025-04-17_11h22.08.681,RewSL_SL_EEG,
ping,high,midRight,UP,red,r,lowA,Stimuli\red_bar1.png,Stimuli\red_bar1.png,Stimuli\ping.png,midLeft,lowB,downRight,lowC,downLeft,upLeft,upRight,2,z,,,,,0,57,57,20,,,0.4,0.7,exp,z,1,0.8725886000011087,10.14,0,-10.14,0,7.16,-7.16,-7.16,-7.16,-7.16,7.16,7.16,7.16,4,124,57,58,3,SL,2,M,29,R,2025-04-17_11h22.08.681,RewSL_SL_EEG,
ping,high,midRight,DOWN,red,l,lowA,Stimuli\red_bar1.png,Stimuli\red_bar1.png,Stimuli\ping.png,midLeft,lowB,downRight,lowC,downLeft,upLeft,upRight,2,m,,,,,0,58,58,2,,,0.4,0.7,exp,m,1,0.7512659999993048,10.14,0,-10.14,0,7.16,-7.16,-7.16,-7.16,-7.16,7.16,7.16,7.16,4,224,58,59,3,SL,2,M,29,R,2025-04-17_11h22.08.681,RewSL_SL_EEG,
ping,lowA,midLeft,UP,red,l,high,Stimuli\red_bar1.png,Stimuli\red_bar1.png,Stimuli\ping.png,midRight,lowB,downRight,lowC,downLeft,upLeft,upRight,2,z,,,,,0,59,59,64,,,0.6,0.7,exp,z,1,0.5984692000001814,-10.14,0,10.14,0,7.16,-7.16,-7.16,-7.16,-7.16,7.16,7.16,7.16,4,114,59,60,3,SL,2,M,29,R,2025-04-17_11h22.08.681,RewSL_SL_EEG,
ping,lowB,downRight,UP,green,l,lowA,Stimuli\green_bar1.png,Stimuli\green_bar1.png,Stimuli\ping.png,midLeft,high,midRight,lowC,downLeft,upLeft,upRight,2,z,,,,,0,60,60,73,,,0.5,0.7,exp,z,1,0.8688069000018004,7.16,-7.16,-10.14,0,10.14,0,-7.16,-7.16,-7.16,7.16,7.16,7.16,4,144,60,61,3,SL,2,M,29,R,2025-04-17_11h22.08.681,RewSL_SL_EEG,
ping,high,midRight,UP,red,r,lowA,Stimuli\red_bar1.png,Stimuli\red_bar1.png,Stimuli\ping.png,midLeft,lowB,downRight,lowC,downLeft,upLeft,upRight,2,z,,,,,0,61,61,44,,,0.6,0.7,exp,z,1,1.2224131000002671,10.14,0,-10.14,0,7.16,-7.16,-7.16,-7.16,-7.16,7.16,7.16,7.16,4,124,61,62,3,SL,2,M,29,R,2025-04-17_11h22.08.681,RewSL_SL_EEG,
ping,high,midRight,DOWN,red,r,lowA,Stimuli\red_bar1.png,Stimuli\red_bar1.png,Stimuli\ping.png,midLeft,lowB,downRight,lowC,downLeft,upLeft,upRight,2,m,,,,,0,62,62,22,,,0.5,0.7,exp,m,1,0.7981039000005694,10.14,0,-10.14,0,7.16,-7.16,-7.16,-7.16,-7.16,7.16,7.16,7.16,4,224,62,63,3,SL,2,M,29,R,2025-04-17_11h22.08.681,RewSL_SL_EEG,
ping,high,midRight,DOWN,green,r,lowA,Stimuli\green_bar1.png,Stimuli\green_bar1.png,Stimuli\ping.png,midLeft,lowB,downRight,lowC,downLeft,upLeft,upRight,2,m,,,,,0,63,63,39,,,0.5,0.7,exp,m,1,0.740345399999569,10.14,0,-10.14,0,7.16,-7.16,-7.16,-7.16,-7.16,7.16,7.16,7.16,4,224,63,64,3,SL,2,M,29,R,2025-04-17_11h22.08.681,RewSL_SL_EEG,
ping,high,midRight,UP,red,l,lowA,Stimuli\red_bar1.png,Stimuli\red_bar1.png,Stimuli\ping.png,midLeft,lowB,downRight,lowC,downLeft,upLeft,upRight,2,z,,,,,0,64,64,40,,,0.4,0.6,exp,z,1,0.6733176999987336,10.14,0,-10.14,0,7.16,-7.16,-7.16,-7.16,-7.16,7.16,7.16,7.16,4,124,64,65,3,SL,2,M,29,R,2025-04-17_11h22.08.681,RewSL_SL_EEG,
ping,lowA,midLeft,DOWN,red,l,high,Stimuli\red_bar1.png,Stimuli\red_bar1.png,Stimuli\ping.png,midRight,lowB,downRight,lowC,downLeft,upLeft,upRight,2,m,,,,,0,65,65,66,,,0.4,0.7,exp,m,1,0.9522608000006585,-10.14,0,10.14,0,7.16,-7.16,-7.16,-7.16,-7.16,7.16,7.16,7.16,4,214,65,66,3,SL,2,M,29,R,2025-04-17_11h22.08.681,RewSL_SL_EEG,
ping,high,midRight,DOWN,green,l,lowA,Stimuli\green_bar1.png,Stimuli\green_bar1.png,Stimuli\ping.png,midLeft,lowB,downRight,lowC,downLeft,upLeft,upRight,2,m,,,,,0,66,66,51,,,0.4,0.7,exp,m,1,0.8686467999996239,10.14,0,-10.14,0,7.16,-7.16,-7.16,-7.16,-7.16,7.16,7.16,7.16,4,224,66,67,3,SL,2,M,29,R,2025-04-17_11h22.08.681,RewSL_SL_EEG,
ping,high,midRight,DOWN,green,r,lowA,Stimuli\green_bar1.png,Stimuli\green_bar1.png,Stimuli\ping.png,midLeft,lowB,downRight,lowC,downLeft,upLeft,upRight,2,m,,,,,0,67,67,7,,,0.4,0.7,exp,z,0,0.8480084000002535,10.14,0,-10.14,0,7.16,-7.16,-7.16,-7.16,-7.16,7.16,7.16,7.16,4,224,67,68,3,SL,2,M,29,R,2025-04-17_11h22.08.681,RewSL_SL_EEG,
ping,high,midRight,DOWN,red,l,lowA,Stimuli\red_bar1.png,Stimuli\red_bar1.png,Stimuli\ping.png,midLeft,lowB,downRight,lowC,downLeft,upLeft,upRight,2,m,,,,,0,68,68,42,,,0.5,0.8,exp,z,0,1.2150294999992184,10.14,0,-10.14,0,7.16,-7.16,-7.16,-7.16,-7.16,7.16,7.16,7.16,4,224,68,69,3,SL,2,M,29,R,2025-04-17_11h22.08.681,RewSL_SL_EEG,
ping,lowC,downLeft,UP,red,r,lowA,Stimuli\red_bar1.png,Stimuli\red_bar1.png,Stimuli\ping.png,midLeft,lowB,downRight,high,midRight,upLeft,upRight,2,z,,,,,0,69,69,84,,,0.6,0.8,exp,z,1,0.9562126000000717,-7.16,-7.16,-10.14,0,7.16,-7.16,10.14,0,-7.16,7.16,7.16,7.16,4,134,69,70,3,SL,2,M,29,R,2025-04-17_11h22.08.681,RewSL_SL_EEG,
ping,high,midRight,DOWN,red,l,lowA,Stimuli\red_bar1.png,Stimuli\red_bar1.png,Stimuli\ping.png,midLeft,lowB,downRight,lowC,downLeft,upLeft,upRight,2,m,,,,,0,70,70,34,,,0.5,0.7,exp,m,1,0.6649773000008281,10.14,0,-10.14,0,7.16,-7.16,-7.16,-7.16,-7.16,7.16,7.16,7.16,4,224,70,71,3,SL,2,M,29,R,2025-04-17_11h22.08.681,RewSL_SL_EEG,
ping,lowC,downLeft,UP,green,l,lowA,Stimuli\green_bar1.png,Stimuli\green_bar1.png,Stimuli\ping.png,midLeft,lowB,downRight,high,midRight,upLeft,upRight,2,z,,,,,0,71,71,97,,,0.5,0.6,exp,z,1,1.0101814999998169,-7.16,-7.16,-10.14,0,7.16,-7.16,10.14,0,-7.16,7.16,7.16,7.16,4,134,71,72,3,SL,2,M,29,R,2025-04-17_11h22.08.681,RewSL_SL_EEG,
ping,lowC,downLeft,DOWN,green,r,lowA,Stimuli\green_bar1.png,Stimuli\green_bar1.png,Stimuli\ping.png,midLeft,lowB,downRight,high,midRight,upLeft,upRight,2,m,,,,,0,72,72,87,,,0.5,0.6,exp,m,1,1.077056199999788,-7.16,-7.16,-10.14,0,7.16,-7.16,10.14,0,-7.16,7.16,7.16,7.16,4,234,72,73,3,SL,2,M,29,R,2025-04-17_11h22.08.681,RewSL_SL_EEG,
ping,high,midRight,UP,red,l,lowA,Stimuli\red_bar1.png,Stimuli\red_bar1.png,Stimuli\ping.png,midLeft,lowB,downRight,lowC,downLeft,upLeft,upRight,2,z,,,,,0,73,73,24,,,0.5,0.7,exp,z,1,0.8609912000010809,10.14,0,-10.14,0,7.16,-7.16,-7.16,-7.16,-7.16,7.16,7.16,7.16,4,124,73,74,3,SL,2,M,29,R,2025-04-17_11h22.08.681,RewSL_SL_EEG,
ping,high,midRight,UP,green,r,lowA,Stimuli\green_bar1.png,Stimuli\green_bar1.png,Stimuli\ping.png,midLeft,lowB,downRight,lowC,downLeft,upLeft,upRight,2,z,,,,,0,74,74,29,,,0.5,0.8,exp,m,0,0.7976061000008485,10.14,0,-10.14,0,7.16,-7.16,-7.16,-7.16,-7.16,7.16,7.16,7.16,4,124,74,75,3,SL,2,M,29,R,2025-04-17_11h22.08.681,RewSL_SL_EEG,
ping,lowB,downRight,DOWN,red,r,lowA,Stimuli\red_bar1.png,Stimuli\red_bar1.png,Stimuli\ping.png,midLeft,high,midRight,lowC,downLeft,upLeft,upRight,2,m,,,,,0,75,75,70,,,0.4,0.7,exp,z,0,1.28629809999984,7.16,-7.16,-10.14,0,10.14,0,-7.16,-7.16,-7.16,7.16,7.16,7.16,4,244,75,76,3,SL,2,M,29,R,2025-04-17_11h22.08.681,RewSL_SL_EEG,
ping,high,midRight,UP,red,r,lowA,Stimuli\red_bar1.png,Stimuli\red_bar1.png,Stimuli\ping.png,midLeft,lowB,downRight,lowC,downLeft,upLeft,upRight,2,z,,,,,0,76,76,28,,,0.5,0.8,exp,z,1,0.6394749000010052,10.14,0,-10.14,0,7.16,-7.16,-7.16,-7.16,-7.16,7.16,7.16,7.16,4,124,76,77,3,SL,2,M,29,R,2025-04-17_11h22.08.681,RewSL_SL_EEG,
ping,high,midRight,UP,red,r,lowA,Stimuli\red_bar1.png,Stimuli\red_bar1.png,Stimuli\ping.png,midLeft,lowB,downRight,lowC,downLeft,upLeft,upRight,2,z,,,,,0,77,77,12,,,0.5,0.8,exp,z,1,0.5950147999992623,10.14,0,-10.14,0,7.16,-7.16,-7.16,-7.16,-7.16,7.16,7.16,7.16,4,124,77,78,3,SL,2,M,29,R,2025-04-17_11h22.08.681,RewSL_SL_EEG,
ping,lowA,midLeft,DOWN,green,r,high,Stimuli\green_bar1.png,Stimuli\green_bar1.png,Stimuli\ping.png,midRight,lowB,downRight,lowC,downLeft,upLeft,upRight,2,m,,,,,0,78,78,55,,,0.6,0.7,exp,m,1,0.7564051999997901,-10.14,0,10.14,0,7.16,-7.16,-7.16,-7.16,-7.16,7.16,7.16,7.16,4,214,78,79,3,SL,2,M,29,R,2025-04-17_11h22.08.681,RewSL_SL_EEG,
ping,lowB,downRight,DOWN,red,r,lowA,Stimuli\red_bar1.png,Stimuli\red_bar1.png,Stimuli\ping.png,midLeft,high,midRight,lowC,downLeft,upLeft,upRight,2,m,,,,,0,79,79,78,,,0.4,0.7,exp,m,1,0.9225038999993558,7.16,-7.16,-10.14,0,10.14,0,-7.16,-7.16,-7.16,7.16,7.16,7.16,4,244,79,80,3,SL,2,M,29,R,2025-04-17_11h22.08.681,RewSL_SL_EEG,
ping,high,midRight,DOWN,green,l,lowA,Stimuli\green_bar1.png,Stimuli\green_bar1.png,Stimuli\ping.png,midLeft,lowB,downRight,lowC,downLeft,upLeft,upRight,2,m,,,,,0,80,80,35,,,0.5,0.7,exp,m,1,0.7684152000001632,10.14,0,-10.14,0,7.16,-7.16,-7.16,-7.16,-7.16,7.16,7.16,7.16,4,224,80,81,3,SL,2,M,29,R,2025-04-17_11h22.08.681,RewSL_SL_EEG,
ping,high,midRight,DOWN,green,l,lowA,Stimuli\green_bar1.png,Stimuli\green_bar1.png,Stimuli\ping.png,midLeft,lowB,downRight,lowC,downLeft,upLeft,upRight,2,m,,,,,0,81,81,19,,,0.4,0.7,exp,m,1,0.7020556999996188,10.14,0,-10.14,0,7.16,-7.16,-7.16,-7.16,-7.16,7.16,7.16,7.16,4,224,81,82,3,SL,2,M,29,R,2025-04-17_11h22.08.681,RewSL_SL_EEG,
ping,lowC,downLeft,DOWN,red,r,lowA,Stimuli\red_bar1.png,Stimuli\red_bar1.png,Stimuli\ping.png,midLeft,lowB,downRight,high,midRight,upLeft,upRight,2,m,,,,,0,82,82,86,,,0.5,0.7,exp,m,1,0.9227709000006143,-7.16,-7.16,-10.14,0,7.16,-7.16,10.14,0,-7.16,7.16,7.16,7.16,4,234,82,83,3,SL,2,M,29,R,2025-04-17_11h22.08.681,RewSL_SL_EEG,
ping,high,midRight,UP,green,r,lowA,Stimuli\green_bar1.png,Stimuli\green_bar1.png,Stimuli\ping.png,midLeft,lowB,downRight,lowC,downLeft,upLeft,upRight,2,z,,,,,0,83,83,13,,,0.6,0.7,exp,m,0,0.9562163999999029,10.14,0,-10.14,0,7.16,-7.16,-7.16,-7.16,-7.16,7.16,7.16,7.16,4,124,83,84,3,SL,2,M,29,R,2025-04-17_11h22.08.681,RewSL_SL_EEG,
ping,lowB,downRight,UP,red,l,lowA,Stimuli\red_bar1.png,Stimuli\red_bar1.png,Stimuli\ping.png,midLeft,high,midRight,lowC,downLeft,upLeft,upRight,2,z,,,,,0,84,84,80,,,0.4,0.6,exp,z,1,0.760483000000022,7.16,-7.16,-10.14,0,10.14,0,-7.16,-7.16,-7.16,7.16,7.16,7.16,4,144,84,85,3,SL,2,M,29,R,2025-04-17_11h22.08.681,RewSL_SL_EEG,
ping,high,midRight,UP,green,r,lowA,Stimuli\green_bar1.png,Stimuli\green_bar1.png,Stimuli\ping.png,midLeft,lowB,downRight,lowC,downLeft,upLeft,upRight,2,z,,,,,0,85,85,37,,,0.5,0.8,exp,m,0,0.8264137000005576,10.14,0,-10.14,0,7.16,-7.16,-7.16,-7.16,-7.16,7.16,7.16,7.16,4,124,85,86,3,SL,2,M,29,R,2025-04-17_11h22.08.681,RewSL_SL_EEG,
ping,lowC,downLeft,DOWN,green,r,lowA,Stimuli\green_bar1.png,Stimuli\green_bar1.png,Stimuli\ping.png,midLeft,lowB,downRight,high,midRight,upLeft,upRight,2,m,,,,,0,86,86,95,,,0.5,0.7,exp,m,1,0.7686460000004445,-7.16,-7.16,-10.14,0,7.16,-7.16,10.14,0,-7.16,7.16,7.16,7.16,4,234,86,87,3,SL,2,M,29,R,2025-04-17_11h22.08.681,RewSL_SL_EEG,
ping,lowB,downRight,DOWN,green,r,lowA,Stimuli\green_bar1.png,Stimuli\green_bar1.png,Stimuli\ping.png,midLeft,high,midRight,lowC,downLeft,upLeft,upRight,2,m,,,,,0,87,87,79,,,0.6,0.7,exp,z,0,1.0364031999997678,7.16,-7.16,-10.14,0,10.14,0,-7.16,-7.16,-7.16,7.16,7.16,7.16,4,244,87,88,3,SL,2,M,29,R,2025-04-17_11h22.08.681,RewSL_SL_EEG,
ping,lowC,downLeft,DOWN,red,l,lowA,Stimuli\red_bar1.png,Stimuli\red_bar1.png,Stimuli\ping.png,midLeft,lowB,downRight,high,midRight,upLeft,upRight,2,m,,,,,0,88,88,90,,,0.4,0.7,exp,m,1,0.7272488999988127,-7.16,-7.16,-10.14,0,7.16,-7.16,10.14,0,-7.16,7.16,7.16,7.16,4,234,88,89,3,SL,2,M,29,R,2025-04-17_11h22.08.681,RewSL_SL_EEG,
ping,high,midRight,DOWN,red,r,lowA,Stimuli\red_bar1.png,Stimuli\red_bar1.png,Stimuli\ping.png,midLeft,lowB,downRight,lowC,downLeft,upLeft,upRight,2,m,,,,,0,89,89,30,,,0.5,0.7,exp,m,1,0.7197632999996131,10.14,0,-10.14,0,7.16,-7.16,-7.16,-7.16,-7.16,7.16,7.16,7.16,4,224,89,90,3,SL,2,M,29,R,2025-04-17_11h22.08.681,RewSL_SL_EEG,
ping,lowA,midLeft,UP,green,r,high,Stimuli\green_bar1.png,Stimuli\green_bar1.png,Stimuli\ping.png,midRight,lowB,downRight,lowC,downLeft,upLeft,upRight,2,z,,,,,0,90,90,61,,,0.6,0.7,exp,z,1,1.0855463000007148,-10.14,0,10.14,0,7.16,-7.16,-7.16,-7.16,-7.16,7.16,7.16,7.16,4,114,90,91,3,SL,2,M,29,R,2025-04-17_11h22.08.681,RewSL_SL_EEG,
ping,high,midRight,DOWN,red,l,lowA,Stimuli\red_bar1.png,Stimuli\red_bar1.png,Stimuli\ping.png,midLeft,lowB,downRight,lowC,downLeft,upLeft,upRight,2,m,,,,,0,91,91,50,,,0.5,0.7,exp,m,1,0.6392801000001782,10.14,0,-10.14,0,7.16,-7.16,-7.16,-7.16,-7.16,7.16,7.16,7.16,4,224,91,92,3,SL,2,M,29,R,2025-04-17_11h22.08.681,RewSL_SL_EEG,
ping,high,midRight,UP,red,l,lowA,Stimuli\red_bar1.png,Stimuli\red_bar1.png,Stimuli\ping.png,midLeft,lowB,downRight,lowC,downLeft,upLeft,upRight,2,z,,,,,0,92,92,16,,,0.5,0.6,exp,z,1,0.5894282000008388,10.14,0,-10.14,0,7.16,-7.16,-7.16,-7.16,-7.16,7.16,7.16,7.16,4,124,92,93,3,SL,2,M,29,R,2025-04-17_11h22.08.681,RewSL_SL_EEG,
ping,lowB,downRight,DOWN,red,l,lowA,Stimuli\red_bar1.png,Stimuli\red_bar1.png,Stimuli\ping.png,midLeft,high,midRight,lowC,downLeft,upLeft,upRight,2,m,,,,,0,93,93,82,,,0.5,0.8,exp,m,1,0.7144697000003362,7.16,-7.16,-10.14,0,10.14,0,-7.16,-7.16,-7.16,7.16,7.16,7.16,4,244,93,94,3,SL,2,M,29,R,2025-04-17_11h22.08.681,RewSL_SL_EEG,
ping,lowB,downRight,DOWN,green,r,lowA,Stimuli\green_bar1.png,Stimuli\green_bar1.png,Stimuli\ping.png,midLeft,high,midRight,lowC,downLeft,upLeft,upRight,2,m,,,,,0,94,94,71,,,0.4,0.7,exp,z,0,0.8805142999990494,7.16,-7.16,-10.14,0,10.14,0,-7.16,-7.16,-7.16,7.16,7.16,7.16,4,244,94,95,3,SL,2,M,29,R,2025-04-17_11h22.08.681,RewSL_SL_EEG,
ping,high,midRight,UP,green,l,lowA,Stimuli\green_bar1.png,Stimuli\green_bar1.png,Stimuli\ping.png,midLeft,lowB,downRight,lowC,downLeft,upLeft,upRight,2,z,,,,,0,95,95,25,,,0.5,0.8,exp,m,0,1.1514298999991297,10.14,0,-10.14,0,7.16,-7.16,-7.16,-7.16,-7.16,7.16,7.16,7.16,4,124,95,96,3,SL,2,M,29,R,2025-04-17_11h22.08.681,RewSL_SL_EEG,
ping,high,midRight,DOWN,green,l,lowA,Stimuli\green_bar1.png,Stimuli\green_bar1.png,Stimuli\ping.png,midLeft,lowB,downRight,lowC,downLeft,upLeft,upRight,2,m,,,,,0,96,96,3,,,0.6,0.7,exp,m,1,1.0224624999991647,10.14,0,-10.14,0,7.16,-7.16,-7.16,-7.16,-7.16,7.16,7.16,7.16,4,224,96,97,3,SL,2,M,29,R,2025-04-17_11h22.08.681,RewSL_SL_EEG,
ping,high,midRight,UP,red,l,lowA,Stimuli\red_bar1.png,Stimuli\red_bar1.png,Stimuli\ping.png,midLeft,lowB,downRight,lowC,downLeft,upLeft,upRight,2,z,,,,,0,97,97,0,,,0.4,0.8,exp,z,1,0.6098965999990469,10.14,0,-10.14,0,7.16,-7.16,-7.16,-7.16,-7.16,7.16,7.16,7.16,4,124,97,98,3,SL,2,M,29,R,2025-04-17_11h22.08.681,RewSL_SL_EEG,
ping,lowB,downRight,UP,red,r,lowA,Stimuli\red_bar1.png,Stimuli\red_bar1.png,Stimuli\ping.png,midLeft,high,midRight,lowC,downLeft,upLeft,upRight,2,z,,,,,0,98,98,76,,,0.5,0.8,exp,z,1,1.0387061000001268,7.16,-7.16,-10.14,0,10.14,0,-7.16,-7.16,-7.16,7.16,7.16,7.16,4,144,98,99,3,SL,2,M,29,R,2025-04-17_11h22.08.681,RewSL_SL_EEG,
ping,lowB,downRight,UP,green,r,lowA,Stimuli\green_bar1.png,Stimuli\green_bar1.png,Stimuli\ping.png,midLeft,high,midRight,lowC,downLeft,upLeft,upRight,2,z,,,,,0,99,99,69,,,0.6,0.7,exp,z,1,1.0060857000007672,7.16,-7.16,-10.14,0,10.14,0,-7.16,-7.16,-7.16,7.16,7.16,7.16,4,144,99,100,3,SL,2,M,29,R,2025-04-17_11h22.08.681,RewSL_SL_EEG,
ping,lowA,downLeft,DOWN,red,l,high,Stimuli\red_bar1.png,Stimuli\red_bar1.png,Stimuli\ping.png,downRight,lowB,midRight,lowC,midLeft,upLeft,upRight,4,m,,,,,0,0,0,54,,,0.6,0.7,exp,m,1,0.7399816000015562,-7.16,-7.16,7.16,-7.16,10.14,0,-10.14,0,-7.16,7.16,7.16,7.16,8,238,100,101,3,SL,2,M,29,R,2025-04-17_11h22.08.681,RewSL_SL_EEG,
ping,lowA,downLeft,UP,green,l,high,Stimuli\green_bar1.png,Stimuli\green_bar1.png,Stimuli\ping.png,downRight,lowB,midRight,lowC,midLeft,upLeft,upRight,4,z,,,,,0,1,1,61,,,0.4,0.7,exp,z,1,0.7103854999986652,-7.16,-7.16,7.16,-7.16,10.14,0,-10.14,0,-7.16,7.16,7.16,7.16,8,138,101,102,3,SL,2,M,29,R,2025-04-17_11h22.08.681,RewSL_SL_EEG,
ping,high,downRight,UP,red,l,lowA,Stimuli\red_bar1.png,Stimuli\red_bar1.png,Stimuli\ping.png,downLeft,lowB,midRight,lowC,midLeft,upLeft,upRight,4,z,,,,,0,2,2,44,,,0.5,0.7,exp,z,1,0.7643982999998116,7.16,-7.16,-7.16,-7.16,10.14,0,-10.14,0,-7.16,7.16,7.16,7.16,8,148,102,103,3,SL,2,M,29,R,2025-04-17_11h22.08.681,RewSL_SL_EEG,
ping,lowB,midRight,DOWN,red,r,lowA,Stimuli\red_bar1.png,Stimuli\red_bar1.png,Stimuli\ping.png,downLeft,high,downRight,lowC,midLeft,upLeft,upRight,4,m,,,,,0,3,3,82,,,0.5,0.7,exp,m,1,0.9772480999999971,10.14,0,-7.16,-7.16,7.16,-7.16,-10.14,0,-7.16,7.16,7.16,7.16,8,228,103,104,3,SL,2,M,29,R,2025-04-17_11h22.08.681,RewSL_SL_EEG,
ping,lowA,downLeft,UP,red,l,high,Stimuli\red_bar1.png,Stimuli\red_bar1.png,Stimuli\ping.png,downRight,lowB,midRight,lowC,midLeft,upLeft,upRight,4,z,,,,,0,4,4,52,,,0.5,0.6,exp,z,1,0.6805647000001045,-7.16,-7.16,7.16,-7.16,10.14,0,-10.14,0,-7.16,7.16,7.16,7.16,8,138,104,105,3,SL,2,M,29,R,2025-04-17_11h22.08.681,RewSL_SL_EEG,
ping,lowC,midLeft,DOWN,green,r,lowA,Stimuli\green_bar1.png,Stimuli\green_bar1.png,Stimuli\ping.png,downLeft,lowB,midRight,high,downRight,upLeft,upRight,4,m,,,,,0,5,5,91,,,0.5,0.7,exp,m,1,0.8099705999993603,-10.14,0,-7.16,-7.16,10.14,0,7.16,-7.16,-7.16,7.16,7.16,7.16,8,218,105,106,3,SL,2,M,29,R,2025-04-17_11h22.08.681,RewSL_SL_EEG,
ping,lowB,midRight,UP,green,l,lowA,Stimuli\green_bar1.png,Stimuli\green_bar1.png,Stimuli\ping.png,downLeft,high,downRight,lowC,midLeft,upLeft,upRight,4,z,,,,,0,6,6,69,,,0.5,0.7,exp,m,0,1.011528000000908,10.14,0,-7.16,-7.16,7.16,-7.16,-10.14,0,-7.16,7.16,7.16,7.16,8,128,106,107,3,SL,2,M,29,R,2025-04-17_11h22.08.681,RewSL_SL_EEG,
ping,lowA,downLeft,DOWN,green,r,high,Stimuli\green_bar1.png,Stimuli\green_bar1.png,Stimuli\ping.png,downRight,lowB,midRight,lowC,midLeft,upLeft,upRight,4,m,,,,,0,7,7,59,,,0.5,0.8,exp,m,1,0.798232300001473,-7.16,-7.16,7.16,-7.16,10.14,0,-10.14,0,-7.16,7.16,7.16,7.16,8,238,107,108,3,SL,2,M,29,R,2025-04-17_11h22.08.681,RewSL_SL_EEG,
ping,lowC,midLeft,UP,green,l,lowA,Stimuli\green_bar1.png,Stimuli\green_bar1.png,Stimuli\ping.png,downLeft,lowB,midRight,high,downRight,upLeft,upRight,4,z,,,,,0,8,8,93,,,0.4,0.7,exp,z,1,0.78962490000049,-10.14,0,-7.16,-7.16,10.14,0,7.16,-7.16,-7.16,7.16,7.16,7.16,8,118,108,109,3,SL,2,M,29,R,2025-04-17_11h22.08.681,RewSL_SL_EEG,
ping,high,downRight,UP,green,l,lowA,Stimuli\green_bar1.png,Stimuli\green_bar1.png,Stimuli\ping.png,downLeft,lowB,midRight,lowC,midLeft,upLeft,upRight,4,z,,,,,0,9,9,21,,,0.4,0.7,exp,m,0,0.7692526999999245,7.16,-7.16,-7.16,-7.16,10.14,0,-10.14,0,-7.16,7.16,7.16,7.16,8,148,109,110,3,SL,2,M,29,R,2025-04-17_11h22.08.681,RewSL_SL_EEG,
ping,lowB,midRight,DOWN,red,l,lowA,Stimuli\red_bar1.png,Stimuli\red_bar1.png,Stimuli\ping.png,downLeft,high,downRight,lowC,midLeft,upLeft,upRight,4,m,,,,,0,10,10,78,,,0.5,0.8,exp,m,1,0.897914999999557,10.14,0,-7.16,-7.16,7.16,-7.16,-10.14,0,-7.16,7.16,7.16,7.16,8,228,110,111,3,SL,2,M,29,R,2025-04-17_11h22.08.681,RewSL_SL_EEG,
ping,high,downRight,DOWN,green,r,lowA,Stimuli\green_bar1.png,Stimuli\green_bar1.png,Stimuli\ping.png,downLeft,lowB,midRight,lowC,midLeft,upLeft,upRight,4,m,,,,,0,11,11,27,,,0.5,0.8,exp,m,1,0.9271090999991429,7.16,-7.16,-7.16,-7.16,10.14,0,-10.14,0,-7.16,7.16,7.16,7.16,8,248,111,112,3,SL,2,M,29,R,2025-04-17_11h22.08.681,RewSL_SL_EEG,
ping,high,downRight,DOWN,green,l,lowA,Stimuli\green_bar1.png,Stimuli\green_bar1.png,Stimuli\ping.png,downLeft,lowB,midRight,lowC,midLeft,upLeft,upRight,4,m,,,,,0,12,12,15,,,0.6,0.7,exp,m,1,0.6185690000002069,7.16,-7.16,-7.16,-7.16,10.14,0,-10.14,0,-7.16,7.16,7.16,7.16,8,248,112,113,3,SL,2,M,29,R,2025-04-17_11h22.08.681,RewSL_SL_EEG,
ping,lowB,midRight,UP,red,l,lowA,Stimuli\red_bar1.png,Stimuli\red_bar1.png,Stimuli\ping.png,downLeft,high,downRight,lowC,midLeft,upLeft,upRight,4,z,,,,,0,13,13,68,,,0.5,0.7,exp,z,1,0.623344099998576,10.14,0,-7.16,-7.16,7.16,-7.16,-10.14,0,-7.16,7.16,7.16,7.16,8,128,113,114,3,SL,2,M,29,R,2025-04-17_11h22.08.681,RewSL_SL_EEG,
ping,high,downRight,DOWN,red,r,lowA,Stimuli\red_bar1.png,Stimuli\red_bar1.png,Stimuli\ping.png,downLeft,lowB,midRight,lowC,midLeft,upLeft,upRight,4,m,,,,,0,14,14,42,,,0.6,0.8,exp,m,1,0.8525589999990189,7.16,-7.16,-7.16,-7.16,10.14,0,-10.14,0,-7.16,7.16,7.16,7.16,8,248,114,115,3,SL,2,M,29,R,2025-04-17_11h22.08.681,RewSL_SL_EEG,
ping,high,downRight,UP,red,r,lowA,Stimuli\red_bar1.png,Stimuli\red_bar1.png,Stimuli\ping.png,downLeft,lowB,midRight,lowC,midLeft,upLeft,upRight,4,z,,,,,0,15,15,32,,,0.4,0.8,exp,z,1,0.9364900000000489,7.16,-7.16,-7.16,-7.16,10.14,0,-10.14,0,-7.16,7.16,7.16,7.16,8,148,115,116,3,SL,2,M,29,R,2025-04-17_11h22.08.681,RewSL_SL_EEG,
ping,high,downRight,DOWN,green,l,lowA,Stimuli\green_bar1.png,Stimuli\green_bar1.png,Stimuli\ping.png,downLeft,lowB,midRight,lowC,midLeft,upLeft,upRight,4,m,,,,,0,16,16,7,,,0.4,0.6,exp,m,1,0.8029616999992868,7.16,-7.16,-7.16,-7.16,10.14,0,-10.14,0,-7.16,7.16,7.16,7.16,8,248,116,117,3,SL,2,M,29,R,2025-04-17_11h22.08.681,RewSL_SL_EEG,
ping,lowC,midLeft,UP,red,l,lowA,Stimuli\red_bar1.png,Stimuli\red_bar1.png,Stimuli\ping.png,downLeft,lowB,midRight,high,downRight,upLeft,upRight,4,z,,,,,0,17,17,92,,,0.5,0.7,exp,z,1,0.5980466999990313,-10.14,0,-7.16,-7.16,10.14,0,7.16,-7.16,-7.16,7.16,7.16,7.16,8,118,117,118,3,SL,2,M,29,R,2025-04-17_11h22.08.681,RewSL_SL_EEG,
ping,lowC,midLeft,DOWN,red,r,lowA,Stimuli\red_bar1.png,Stimuli\red_bar1.png,Stimuli\ping.png,downLeft,lowB,midRight,high,downRight,upLeft,upRight,4,m,,,,,0,18,18,98,,,0.4,0.7,exp,m,1,0.7678109999997105,-10.14,0,-7.16,-7.16,10.14,0,7.16,-7.16,-7.16,7.16,7.16,7.16,8,218,118,119,3,SL,2,M,29,R,2025-04-17_11h22.08.681,RewSL_SL_EEG,
ping,lowC,midLeft,DOWN,green,l,lowA,Stimuli\green_bar1.png,Stimuli\green_bar1.png,Stimuli\ping.png,downLeft,lowB,midRight,high,downRight,upLeft,upRight,4,m,,,,,0,19,19,87,,,0.5,0.7,exp,m,1,0.7720113999985188,-10.14,0,-7.16,-7.16,10.14,0,7.16,-7.16,-7.16,7.16,7.16,7.16,8,218,119,120,3,SL,2,M,29,R,2025-04-17_11h22.08.681,RewSL_SL_EEG,
ping,lowC,midLeft,UP,green,r,lowA,Stimuli\green_bar1.png,Stimuli\green_bar1.png,Stimuli\ping.png,downLeft,lowB,midRight,high,downRight,upLeft,upRight,4,z,,,,,0,20,20,89,,,0.4,0.7,exp,z,1,0.7310127000000648,-10.14,0,-7.16,-7.16,10.14,0,7.16,-7.16,-7.16,7.16,7.16,7.16,8,118,120,121,3,SL,2,M,29,R,2025-04-17_11h22.08.681,RewSL_SL_EEG,
ping,high,downRight,UP,green,r,lowA,Stimuli\green_bar1.png,Stimuli\green_bar1.png,Stimuli\ping.png,downLeft,lowB,midRight,lowC,midLeft,upLeft,upRight,4,z,,,,,0,21,21,1,,,0.5,0.6,exp,z,1,0.7732218999990437,7.16,-7.16,-7.16,-7.16,10.14,0,-10.14,0,-7.16,7.16,7.16,7.16,8,148,121,122,3,SL,2,M,29,R,2025-04-17_11h22.08.681,RewSL_SL_EEG,
ping,high,downRight,DOWN,green,r,lowA,Stimuli\green_bar1.png,Stimuli\green_bar1.png,Stimuli\ping.png,downLeft,lowB,midRight,lowC,midLeft,upLeft,upRight,4,m,,,,,0,22,22,19,,,0.6,0.8,exp,z,0,1.1855560000003607,7.16,-7.16,-7.16,-7.16,10.14,0,-10.14,0,-7.16,7.16,7.16,7.16,8,248,122,123,3,SL,2,M,29,R,2025-04-17_11h22.08.681,RewSL_SL_EEG,
ping,lowB,midRight,UP,red,l,lowA,Stimuli\red_bar1.png,Stimuli\red_bar1.png,Stimuli\ping.png,downLeft,high,downRight,lowC,midLeft,upLeft,upRight,4,z,,,,,0,23,23,76,,,0.5,0.7,exp,z,1,0.6598482999997941,10.14,0,-7.16,-7.16,7.16,-7.16,-10.14,0,-7.16,7.16,7.16,7.16,8,128,123,124,3,SL,2,M,29,R,2025-04-17_11h22.08.681,RewSL_SL_EEG,
ping,lowB,midRight,DOWN,green,l,lowA,Stimuli\green_bar1.png,Stimuli\green_bar1.png,Stimuli\ping.png,downLeft,high,downRight,lowC,midLeft,upLeft,upRight,4,m,,,,,0,24,24,79,,,0.4,0.8,exp,m,1,0.8144725000001927,10.14,0,-7.16,-7.16,7.16,-7.16,-10.14,0,-7.16,7.16,7.16,7.16,8,228,124,125,3,SL,2,M,29,R,2025-04-17_11h22.08.681,RewSL_SL_EEG,
ping,high,downRight,UP,red,r,lowA,Stimuli\red_bar1.png,Stimuli\red_bar1.png,Stimuli\ping.png,downLeft,lowB,midRight,lowC,midLeft,upLeft,upRight,4,z,,,,,0,25,25,0,,,0.5,0.7,exp,z,1,0.7892701999990095,7.16,-7.16,-7.16,-7.16,10.14,0,-10.14,0,-7.16,7.16,7.16,7.16,8,148,125,126,3,SL,2,M,29,R,2025-04-17_11h22.08.681,RewSL_SL_EEG,
ping,high,downRight,UP,green,r,lowA,Stimuli\green_bar1.png,Stimuli\green_bar1.png,Stimuli\ping.png,downLeft,lowB,midRight,lowC,midLeft,upLeft,upRight,4,z,,,,,0,26,26,33,,,0.4,0.7,exp,z,1,0.7769740000003367,7.16,-7.16,-7.16,-7.16,10.14,0,-10.14,0,-7.16,7.16,7.16,7.16,8,148,126,127,3,SL,2,M,29,R,2025-04-17_11h22.08.681,RewSL_SL_EEG,
ping,lowC,midLeft,DOWN,red,r,lowA,Stimuli\red_bar1.png,Stimuli\red_bar1.png,Stimuli\ping.png,downLeft,lowB,midRight,high,downRight,upLeft,upRight,4,m,,,,,0,27,27,90,,,0.5,0.8,exp,m,1,0.7599100000006729,-10.14,0,-7.16,-7.16,10.14,0,7.16,-7.16,-7.16,7.16,7.16,7.16,8,218,127,128,3,SL,2,M,29,R,2025-04-17_11h22.08.681,RewSL_SL_EEG,
ping,lowC,midLeft,UP,green,r,lowA,Stimuli\green_bar1.png,Stimuli\green_bar1.png,Stimuli\ping.png,downLeft,lowB,midRight,high,downRight,upLeft,upRight,4,z,,,,,0,28,28,97,,,0.5,0.7,exp,z,1,0.8435497000009491,-10.14,0,-7.16,-7.16,10.14,0,7.16,-7.16,-7.16,7.16,7.16,7.16,8,118,128,129,3,SL,2,M,29,R,2025-04-17_11h22.08.681,RewSL_SL_EEG,
ping,high,downRight,UP,green,l,lowA,Stimuli\green_bar1.png,Stimuli\green_bar1.png,Stimuli\ping.png,downLeft,lowB,midRight,lowC,midLeft,upLeft,upRight,4,z,,,,,0,29,29,5,,,0.5,0.8,exp,m,0,1.0768298999992112,7.16,-7.16,-7.16,-7.16,10.14,0,-10.14,0,-7.16,7.16,7.16,7.16,8,148,129,130,3,SL,2,M,29,R,2025-04-17_11h22.08.681,RewSL_SL_EEG,
ping,high,downRight,DOWN,green,l,lowA,Stimuli\green_bar1.png,Stimuli\green_bar1.png,Stimuli\ping.png,downLeft,lowB,midRight,lowC,midLeft,upLeft,upRight,4,m,,,,,0,30,30,31,,,0.5,0.8,exp,m,1,0.8062494000005245,7.16,-7.16,-7.16,-7.16,10.14,0,-10.14,0,-7.16,7.16,7.16,7.16,8,248,130,131,3,SL,2,M,29,R,2025-04-17_11h22.08.681,RewSL_SL_EEG,
ping,high,downRight,DOWN,green,r,lowA,Stimuli\green_bar1.png,Stimuli\green_bar1.png,Stimuli\ping.png,downLeft,lowB,midRight,lowC,midLeft,upLeft,upRight,4,m,,,,,0,31,31,11,,,0.4,0.7,exp,m,1,0.8808152000001428,7.16,-7.16,-7.16,-7.16,10.14,0,-10.14,0,-7.16,7.16,7.16,7.16,8,248,131,132,3,SL,2,M,29,R,2025-04-17_11h22.08.681,RewSL_SL_EEG,
ping,high,downRight,DOWN,green,r,lowA,Stimuli\green_bar1.png,Stimuli\green_bar1.png,Stimuli\ping.png,downLeft,lowB,midRight,lowC,midLeft,upLeft,upRight,4,m,,,,,0,32,32,51,,,0.5,0.7,exp,m,1,0.8859277999999904,7.16,-7.16,-7.16,-7.16,10.14,0,-10.14,0,-7.16,7.16,7.16,7.16,8,248,132,133,3,SL,2,M,29,R,2025-04-17_11h22.08.681,RewSL_SL_EEG,
ping,high,downRight,UP,red,l,lowA,Stimuli\red_bar1.png,Stimuli\red_bar1.png,Stimuli\ping.png,downLeft,lowB,midRight,lowC,midLeft,upLeft,upRight,4,z,,,,,0,33,33,20,,,0.5,0.8,exp,z,1,0.7858722000000853,7.16,-7.16,-7.16,-7.16,10.14,0,-10.14,0,-7.16,7.16,7.16,7.16,8,148,133,134,3,SL,2,M,29,R,2025-04-17_11h22.08.681,RewSL_SL_EEG,
ping,high,downRight,DOWN,red,r,lowA,Stimuli\red_bar1.png,Stimuli\red_bar1.png,Stimuli\ping.png,downLeft,lowB,midRight,lowC,midLeft,upLeft,upRight,4,m,,,,,0,34,34,2,,,0.5,0.7,exp,m,1,1.110092299999451,7.16,-7.16,-7.16,-7.16,10.14,0,-10.14,0,-7.16,7.16,7.16,7.16,8,248,134,135,3,SL,2,M,29,R,2025-04-17_11h22.08.681,RewSL_SL_EEG,
ping,high,downRight,UP,green,l,lowA,Stimuli\green_bar1.png,Stimuli\green_bar1.png,Stimuli\ping.png,downLeft,lowB,midRight,lowC,midLeft,upLeft,upRight,4,z,,,,,0,35,35,45,,,0.6,0.6,exp,z,1,0.72690429999966,7.16,-7.16,-7.16,-7.16,10.14,0,-10.14,0,-7.16,7.16,7.16,7.16,8,148,135,136,3,SL,2,M,29,R,2025-04-17_11h22.08.681,RewSL_SL_EEG,
ping,lowA,downLeft,DOWN,green,l,high,Stimuli\green_bar1.png,Stimuli\green_bar1.png,Stimuli\ping.png,downRight,lowB,midRight,lowC,midLeft,upLeft,upRight,4,m,,,,,0,36,36,63,,,0.5,0.6,exp,m,1,0.7694245999991836,-7.16,-7.16,7.16,-7.16,10.14,0,-10.14,0,-7.16,7.16,7.16,7.16,8,238,136,137,3,SL,2,M,29,R,2025-04-17_11h22.08.681,RewSL_SL_EEG,
ping,high,downRight,UP,green,l,lowA,Stimuli\green_bar1.png,Stimuli\green_bar1.png,Stimuli\ping.png,downLeft,lowB,midRight,lowC,midLeft,upLeft,upRight,4,z,,,,,0,37,37,37,,,0.5,0.7,exp,z,1,0.7105310999995709,7.16,-7.16,-7.16,-7.16,10.14,0,-10.14,0,-7.16,7.16,7.16,7.16,8,148,137,138,3,SL,2,M,29,R,2025-04-17_11h22.08.681,RewSL_SL_EEG,
ping,high,downRight,UP,green,r,lowA,Stimuli\green_bar1.png,Stimuli\green_bar1.png,Stimuli\ping.png,downLeft,lowB,midRight,lowC,midLeft,upLeft,upRight,4,z,,,,,0,38,38,25,,,0.5,0.7,exp,z,1,0.8433252999984688,7.16,-7.16,-7.16,-7.16,10.14,0,-10.14,0,-7.16,7.16,7.16,7.16,8,148,138,139,3,SL,2,M,29,R,2025-04-17_11h22.08.681,RewSL_SL_EEG,
ping,high,downRight,UP,green,r,lowA,Stimuli\green_bar1.png,Stimuli\green_bar1.png,Stimuli\ping.png,downLeft,lowB,midRight,lowC,midLeft,upLeft,upRight,4,z,,,,,0,39,39,9,,,0.5,0.7,exp,m,0,0.7188643000008597,7.16,-7.16,-7.16,-7.16,10.14,0,-10.14,0,-7.16,7.16,7.16,7.16,8,148,139,140,3,SL,2,M,29,R,2025-04-17_11h22.08.681,RewSL_SL_EEG,
ping,lowA,downLeft,DOWN,green,l,high,Stimuli\green_bar1.png,Stimuli\green_bar1.png,Stimuli\ping.png,downRight,lowB,midRight,lowC,midLeft,upLeft,upRight,4,m,,,,,0,40,40,55,,,0.5,0.7,exp,m,1,0.8023714999999356,-7.16,-7.16,7.16,-7.16,10.14,0,-10.14,0,-7.16,7.16,7.16,7.16,8,238,140,141,3,SL,2,M,29,R,2025-04-17_11h22.08.681,RewSL_SL_EEG,
ping,high,downRight,DOWN,red,l,lowA,Stimuli\red_bar1.png,Stimuli\red_bar1.png,Stimuli\ping.png,downLeft,lowB,midRight,lowC,midLeft,upLeft,upRight,4,m,,,,,0,41,41,38,,,0.5,0.7,exp,m,1,0.7096070000006875,7.16,-7.16,-7.16,-7.16,10.14,0,-10.14,0,-7.16,7.16,7.16,7.16,8,248,141,142,3,SL,2,M,29,R,2025-04-17_11h22.08.681,RewSL_SL_EEG,
ping,high,downRight,DOWN,red,l,lowA,Stimuli\red_bar1.png,Stimuli\red_bar1.png,Stimuli\ping.png,downLeft,lowB,midRight,lowC,midLeft,upLeft,upRight,4,m,,,,,0,42,42,14,,,0.5,0.8,exp,m,1,0.6101393999997526,7.16,-7.16,-7.16,-7.16,10.14,0,-10.14,0,-7.16,7.16,7.16,7.16,8,248,142,143,3,SL,2,M,29,R,2025-04-17_11h22.08.681,RewSL_SL_EEG,
ping,lowC,midLeft,UP,red,l,lowA,Stimuli\red_bar1.png,Stimuli\red_bar1.png,Stimuli\ping.png,downLeft,lowB,midRight,high,downRight,upLeft,upRight,4,z,,,,,0,43,43,84,,,0.6,0.6,exp,z,1,0.68145160000131,-10.14,0,-7.16,-7.16,10.14,0,7.16,-7.16,-7.16,7.16,7.16,7.16,8,118,143,144,3,SL,2,M,29,R,2025-04-17_11h22.08.681,RewSL_SL_EEG,
ping,high,downRight,UP,red,r,lowA,Stimuli\red_bar1.png,Stimuli\red_bar1.png,Stimuli\ping.png,downLeft,lowB,midRight,lowC,midLeft,upLeft,upRight,4,z,,,,,0,44,44,8,,,0.6,0.6,exp,z,1,0.797925299999406,7.16,-7.16,-7.16,-7.16,10.14,0,-10.14,0,-7.16,7.16,7.16,7.16,8,148,144,145,3,SL,2,M,29,R,2025-04-17_11h22.08.681,RewSL_SL_EEG,
ping,high,downRight,UP,green,r,lowA,Stimuli\green_bar1.png,Stimuli\green_bar1.png,Stimuli\ping.png,downLeft,lowB,midRight,lowC,midLeft,upLeft,upRight,4,z,,,,,0,45,45,49,,,0.4,0.7,exp,z,1,0.8556931000002805,7.16,-7.16,-7.16,-7.16,10.14,0,-10.14,0,-7.16,7.16,7.16,7.16,8,148,145,146,3,SL,2,M,29,R,2025-04-17_11h22.08.681,RewSL_SL_EEG,
ping,high,downRight,DOWN,red,r,lowA,Stimuli\red_bar1.png,Stimuli\red_bar1.png,Stimuli\ping.png,downLeft,lowB,midRight,lowC,midLeft,upLeft,upRight,4,m,,,,,0,46,46,10,,,0.5,0.8,exp,m,1,0.8355403999994451,7.16,-7.16,-7.16,-7.16,10.14,0,-10.14,0,-7.16,7.16,7.16,7.16,8,248,146,147,3,SL,2,M,29,R,2025-04-17_11h22.08.681,RewSL_SL_EEG,
ping,lowA,downLeft,UP,red,r,high,Stimuli\red_bar1.png,Stimuli\red_bar1.png,Stimuli\ping.png,downRight,lowB,midRight,lowC,midLeft,upLeft,upRight,4,z,,,,,0,47,47,56,,,0.4,0.7,exp,z,1,0.7185028999992937,-7.16,-7.16,7.16,-7.16,10.14,0,-10.14,0,-7.16,7.16,7.16,7.16,8,138,147,148,3,SL,2,M,29,R,2025-04-17_11h22.08.681,RewSL_SL_EEG,
ping,lowA,downLeft,UP,red,l,high,Stimuli\red_bar1.png,Stimuli\red_bar1.png,Stimuli\ping.png,downRight,lowB,midRight,lowC,midLeft,upLeft,upRight,4,z,,,,,0,48,48,60,,,0.5,0.6,exp,z,1,0.7903477999989263,-7.16,-7.16,7.16,-7.16,10.14,0,-10.14,0,-7.16,7.16,7.16,7.16,8,138,148,149,3,SL,2,M,29,R,2025-04-17_11h22.08.681,RewSL_SL_EEG,
ping,high,downRight,DOWN,red,l,lowA,Stimuli\red_bar1.png,Stimuli\red_bar1.png,Stimuli\ping.png,downLeft,lowB,midRight,lowC,midLeft,upLeft,upRight,4,m,,,,,0,49,49,22,,,0.6,0.6,exp,m,1,0.8195577999995294,7.16,-7.16,-7.16,-7.16,10.14,0,-10.14,0,-7.16,7.16,7.16,7.16,8,248,149,150,3,SL,2,M,29,R,2025-04-17_11h22.08.681,RewSL_SL_EEG,
ping,lowB,midRight,UP,green,r,lowA,Stimuli\green_bar1.png,Stimuli\green_bar1.png,Stimuli\ping.png,downLeft,high,downRight,lowC,midLeft,upLeft,upRight,4,z,,,,,0,50,50,81,,,0.4,0.7,exp,m,0,1.1353532999983145,10.14,0,-7.16,-7.16,7.16,-7.16,-10.14,0,-7.16,7.16,7.16,7.16,8,128,150,151,3,SL,2,M,29,R,2025-04-17_11h22.08.681,RewSL_SL_EEG,
ping,high,downRight,DOWN,red,r,lowA,Stimuli\red_bar1.png,Stimuli\red_bar1.png,Stimuli\ping.png,downLeft,lowB,midRight,lowC,midLeft,upLeft,upRight,4,m,,,,,0,51,51,34,,,0.5,0.6,exp,m,1,0.8057304000012664,7.16,-7.16,-7.16,-7.16,10.14,0,-10.14,0,-7.16,7.16,7.16,7.16,8,248,151,152,3,SL,2,M,29,R,2025-04-17_11h22.08.681,RewSL_SL_EEG,
ping,lowC,midLeft,DOWN,red,l,lowA,Stimuli\red_bar1.png,Stimuli\red_bar1.png,Stimuli\ping.png,downLeft,lowB,midRight,high,downRight,upLeft,upRight,4,m,,,,,0,52,52,86,,,0.5,0.7,exp,m,1,0.588801699999749,-10.14,0,-7.16,-7.16,10.14,0,7.16,-7.16,-7.16,7.16,7.16,7.16,8,218,152,153,3,SL,2,M,29,R,2025-04-17_11h22.08.681,RewSL_SL_EEG,
ping,high,downRight,DOWN,green,l,lowA,Stimuli\green_bar1.png,Stimuli\green_bar1.png,Stimuli\ping.png,downLeft,lowB,midRight,lowC,midLeft,upLeft,upRight,4,m,,,,,0,53,53,23,,,0.5,0.7,exp,m,1,0.7187291000009282,7.16,-7.16,-7.16,-7.16,10.14,0,-10.14,0,-7.16,7.16,7.16,7.16,8,248,153,154,3,SL,2,M,29,R,2025-04-17_11h22.08.681,RewSL_SL_EEG,
ping,high,downRight,DOWN,red,r,lowA,Stimuli\red_bar1.png,Stimuli\red_bar1.png,Stimuli\ping.png,downLeft,lowB,midRight,lowC,midLeft,upLeft,upRight,4,m,,,,,0,54,54,50,,,0.4,0.8,exp,m,1,0.5977025000011054,7.16,-7.16,-7.16,-7.16,10.14,0,-10.14,0,-7.16,7.16,7.16,7.16,8,248,154,155,3,SL,2,M,29,R,2025-04-17_11h22.08.681,RewSL_SL_EEG,
ping,high,downRight,UP,red,r,lowA,Stimuli\red_bar1.png,Stimuli\red_bar1.png,Stimuli\ping.png,downLeft,lowB,midRight,lowC,midLeft,upLeft,upRight,4,z,,,,,0,55,55,40,,,0.5,0.7,exp,m,0,0.814845000000787,7.16,-7.16,-7.16,-7.16,10.14,0,-10.14,0,-7.16,7.16,7.16,7.16,8,148,155,156,3,SL,2,M,29,R,2025-04-17_11h22.08.681,RewSL_SL_EEG,
ping,high,downRight,DOWN,red,l,lowA,Stimuli\red_bar1.png,Stimuli\red_bar1.png,Stimuli\ping.png,downLeft,lowB,midRight,lowC,midLeft,upLeft,upRight,4,m,,,,,0,56,56,30,,,0.6,0.8,exp,m,1,0.8109308000002784,7.16,-7.16,-7.16,-7.16,10.14,0,-10.14,0,-7.16,7.16,7.16,7.16,8,248,156,157,3,SL,2,M,29,R,2025-04-17_11h22.08.681,RewSL_SL_EEG,
ping,lowB,midRight,DOWN,red,r,lowA,Stimuli\red_bar1.png,Stimuli\red_bar1.png,Stimuli\ping.png,downLeft,high,downRight,lowC,midLeft,upLeft,upRight,4,m,,,,,0,57,57,74,,,0.6,0.7,exp,m,1,0.7471752999990713,10.14,0,-7.16,-7.16,7.16,-7.16,-10.14,0,-7.16,7.16,7.16,7.16,8,228,157,158,3,SL,2,M,29,R,2025-04-17_11h22.08.681,RewSL_SL_EEG,
ping,high,downRight,UP,green,r,lowA,Stimuli\green_bar1.png,Stimuli\green_bar1.png,Stimuli\ping.png,downLeft,lowB,midRight,lowC,midLeft,upLeft,upRight,4,z,,,,,0,58,58,41,,,0.4,0.7,exp,m,0,0.868205400000079,7.16,-7.16,-7.16,-7.16,10.14,0,-10.14,0,-7.16,7.16,7.16,7.16,8,148,158,159,3,SL,2,M,29,R,2025-04-17_11h22.08.681,RewSL_SL_EEG,
ping,lowC,midLeft,UP,red,r,lowA,Stimuli\red_bar1.png,Stimuli\red_bar1.png,Stimuli\ping.png,downLeft,lowB,midRight,high,downRight,upLeft,upRight,4,z,,,,,0,59,59,88,,,0.4,0.7,exp,z,1,0.7310240000006161,-10.14,0,-7.16,-7.16,10.14,0,7.16,-7.16,-7.16,7.16,7.16,7.16,8,118,159,160,3,SL,2,M,29,R,2025-04-17_11h22.08.681,RewSL_SL_EEG,
ping,high,downRight,DOWN,green,r,lowA,Stimuli\green_bar1.png,Stimuli\green_bar1.png,Stimuli\ping.png,downLeft,lowB,midRight,lowC,midLeft,upLeft,upRight,4,m,,,,,0,60,60,35,,,0.4,0.6,exp,m,1,0.7434506000008696,7.16,-7.16,-7.16,-7.16,10.14,0,-10.14,0,-7.16,7.16,7.16,7.16,8,248,160,161,3,SL,2,M,29,R,2025-04-17_11h22.08.681,RewSL_SL_EEG,
ping,high,downRight,UP,red,l,lowA,Stimuli\red_bar1.png,Stimuli\red_bar1.png,Stimuli\ping.png,downLeft,lowB,midRight,lowC,midLeft,upLeft,upRight,4,z,,,,,0,61,61,12,,,0.5,0.7,exp,z,1,0.6727882999985013,7.16,-7.16,-7.16,-7.16,10.14,0,-10.14,0,-7.16,7.16,7.16,7.16,8,148,161,162,3,SL,2,M,29,R,2025-04-17_11h22.08.681,RewSL_SL_EEG,
ping,lowC,midLeft,UP,red,r,lowA,Stimuli\red_bar1.png,Stimuli\red_bar1.png,Stimuli\ping.png,downLeft,lowB,midRight,high,downRight,upLeft,upRight,4,z,,,,,0,62,62,96,,,0.4,0.6,exp,z,1,0.8606414000005316,-10.14,0,-7.16,-7.16,10.14,0,7.16,-7.16,-7.16,7.16,7.16,7.16,8,118,162,163,3,SL,2,M,29,R,2025-04-17_11h22.08.681,RewSL_SL_EEG,
ping,high,downRight,UP,green,l,lowA,Stimuli\green_bar1.png,Stimuli\green_bar1.png,Stimuli\ping.png,downLeft,lowB,midRight,lowC,midLeft,upLeft,upRight,4,z,,,,,0,63,63,29,,,0.6,0.7,exp,z,1,0.8432086000011623,7.16,-7.16,-7.16,-7.16,10.14,0,-10.14,0,-7.16,7.16,7.16,7.16,8,148,163,164,3,SL,2,M,29,R,2025-04-17_11h22.08.681,RewSL_SL_EEG,
ping,high,downRight,DOWN,red,r,lowA,Stimuli\red_bar1.png,Stimuli\red_bar1.png,Stimuli\ping.png,downLeft,lowB,midRight,lowC,midLeft,upLeft,upRight,4,m,,,,,0,64,64,26,,,0.4,0.7,exp,m,1,1.222211000000243,7.16,-7.16,-7.16,-7.16,10.14,0,-10.14,0,-7.16,7.16,7.16,7.16,8,248,164,165,3,SL,2,M,29,R,2025-04-17_11h22.08.681,RewSL_SL_EEG,
ping,high,downRight,DOWN,green,l,lowA,Stimuli\green_bar1.png,Stimuli\green_bar1.png,Stimuli\ping.png,downLeft,lowB,midRight,lowC,midLeft,upLeft,upRight,4,m,,,,,0,65,65,47,,,0.5,0.7,exp,m,1,0.6150474000005488,7.16,-7.16,-7.16,-7.16,10.14,0,-10.14,0,-7.16,7.16,7.16,7.16,8,248,165,166,3,SL,2,M,29,R,2025-04-17_11h22.08.681,RewSL_SL_EEG,
ping,lowA,downLeft,UP,green,r,high,Stimuli\green_bar1.png,Stimuli\green_bar1.png,Stimuli\ping.png,downRight,lowB,midRight,lowC,midLeft,upLeft,upRight,4,z,,,,,0,66,66,57,,,0.5,0.8,exp,z,1,0.6324605999998312,-7.16,-7.16,7.16,-7.16,10.14,0,-10.14,0,-7.16,7.16,7.16,7.16,8,138,166,167,3,SL,2,M,29,R,2025-04-17_11h22.08.681,RewSL_SL_EEG,
ping,lowB,midRight,UP,green,r,lowA,Stimuli\green_bar1.png,Stimuli\green_bar1.png,Stimuli\ping.png,downLeft,high,downRight,lowC,midLeft,upLeft,upRight,4,z,,,,,0,67,67,73,,,0.6,0.6,exp,z,1,1.1768436000002112,10.14,0,-7.16,-7.16,7.16,-7.16,-10.14,0,-7.16,7.16,7.16,7.16,8,128,167,168,3,SL,2,M,29,R,2025-04-17_11h22.08.681,RewSL_SL_EEG,
ping,lowA,downLeft,DOWN,green,r,high,Stimuli\green_bar1.png,Stimuli\green_bar1.png,Stimuli\ping.png,downRight,lowB,midRight,lowC,midLeft,upLeft,upRight,4,m,,,,,0,68,68,67,,,0.5,0.7,exp,m,1,0.6729598000001715,-7.16,-7.16,7.16,-7.16,10.14,0,-10.14,0,-7.16,7.16,7.16,7.16,8,238,168,169,3,SL,2,M,29,R,2025-04-17_11h22.08.681,RewSL_SL_EEG,
ping,high,downRight,DOWN,red,l,lowA,Stimuli\red_bar1.png,Stimuli\red_bar1.png,Stimuli\ping.png,downLeft,lowB,midRight,lowC,midLeft,upLeft,upRight,4,m,,,,,0,69,69,6,,,0.5,0.7,exp,m,1,0.8563176999996358,7.16,-7.16,-7.16,-7.16,10.14,0,-10.14,0,-7.16,7.16,7.16,7.16,8,248,169,170,3,SL,2,M,29,R,2025-04-17_11h22.08.681,RewSL_SL_EEG,
ping,high,downRight,DOWN,red,r,lowA,Stimuli\red_bar1.png,Stimuli\red_bar1.png,Stimuli\ping.png,downLeft,lowB,midRight,lowC,midLeft,upLeft,upRight,4,m,,,,,0,70,70,18,,,0.4,0.7,exp,m,1,1.1854291999989073,7.16,-7.16,-7.16,-7.16,10.14,0,-10.14,0,-7.16,7.16,7.16,7.16,8,248,170,171,3,SL,2,M,29,R,2025-04-17_11h22.08.681,RewSL_SL_EEG,
ping,lowB,midRight,UP,red,r,lowA,Stimuli\red_bar1.png,Stimuli\red_bar1.png,Stimuli\ping.png,downLeft,high,downRight,lowC,midLeft,upLeft,upRight,4,z,,,,,0,71,71,72,,,0.5,0.6,exp,z,1,0.6691003999985696,10.14,0,-7.16,-7.16,7.16,-7.16,-10.14,0,-7.16,7.16,7.16,7.16,8,128,171,172,3,SL,2,M,29,R,2025-04-17_11h22.08.681,RewSL_SL_EEG,
ping,lowA,downLeft,UP,green,l,high,Stimuli\green_bar1.png,Stimuli\green_bar1.png,Stimuli\ping.png,downRight,lowB,midRight,lowC,midLeft,upLeft,upRight,4,z,,,,,0,72,72,53,,,0.4,0.7,exp,z,1,0.7723742999987735,-7.16,-7.16,7.16,-7.16,10.14,0,-10.14,0,-7.16,7.16,7.16,7.16,8,138,172,173,3,SL,2,M,29,R,2025-04-17_11h22.08.681,RewSL_SL_EEG,
ping,lowB,midRight,DOWN,green,r,lowA,Stimuli\green_bar1.png,Stimuli\green_bar1.png,Stimuli\ping.png,downLeft,high,downRight,lowC,midLeft,upLeft,upRight,4,m,,,,,0,73,73,83,,,0.5,0.7,exp,m,1,1.0307135000002745,10.14,0,-7.16,-7.16,7.16,-7.16,-10.14,0,-7.16,7.16,7.16,7.16,8,228,173,174,3,SL,2,M,29,R,2025-04-17_11h22.08.681,RewSL_SL_EEG,
ping,lowA,downLeft,DOWN,red,r,high,Stimuli\red_bar1.png,Stimuli\red_bar1.png,Stimuli\ping.png,downRight,lowB,midRight,lowC,midLeft,upLeft,upRight,4,m,,,,,0,74,74,66,,,0.5,0.6,exp,m,1,0.8936021000008623,-7.16,-7.16,7.16,-7.16,10.14,0,-10.14,0,-7.16,7.16,7.16,7.16,8,238,174,175,3,SL,2,M,29,R,2025-04-17_11h22.08.681,RewSL_SL_EEG,
ping,lowB,midRight,DOWN,green,r,lowA,Stimuli\green_bar1.png,Stimuli\green_bar1.png,Stimuli\ping.png,downLeft,high,downRight,lowC,midLeft,upLeft,upRight,4,m,,,,,0,75,75,75,,,0.4,0.7,exp,m,1,0.7396232999999484,10.14,0,-7.16,-7.16,7.16,-7.16,-10.14,0,-7.16,7.16,7.16,7.16,8,228,175,176,3,SL,2,M,29,R,2025-04-17_11h22.08.681,RewSL_SL_EEG,
ping,high,downRight,DOWN,green,l,lowA,Stimuli\green_bar1.png,Stimuli\green_bar1.png,Stimuli\ping.png,downLeft,lowB,midRight,lowC,midLeft,upLeft,upRight,4,m,,,,,0,76,76,39,,,0.5,0.7,exp,z,0,0.893774600001052,7.16,-7.16,-7.16,-7.16,10.14,0,-10.14,0,-7.16,7.16,7.16,7.16,8,248,176,177,3,SL,2,M,29,R,2025-04-17_11h22.08.681,RewSL_SL_EEG,
ping,high,downRight,UP,red,r,lowA,Stimuli\red_bar1.png,Stimuli\red_bar1.png,Stimuli\ping.png,downLeft,lowB,midRight,lowC,midLeft,upLeft,upRight,4,z,,,,,0,77,77,48,,,0.5,0.7,exp,z,1,0.7853271000003588,7.16,-7.16,-7.16,-7.16,10.14,0,-10.14,0,-7.16,7.16,7.16,7.16,8,148,177,178,3,SL,2,M,29,R,2025-04-17_11h22.08.681,RewSL_SL_EEG,
ping,lowA,downLeft,DOWN,red,r,high,Stimuli\red_bar1.png,Stimuli\red_bar1.png,Stimuli\ping.png,downRight,lowB,midRight,lowC,midLeft,upLeft,upRight,4,m,,,,,0,78,78,58,,,0.5,0.8,exp,z,0,1.2354536000002554,-7.16,-7.16,7.16,-7.16,10.14,0,-10.14,0,-7.16,7.16,7.16,7.16,8,238,178,179,3,SL,2,M,29,R,2025-04-17_11h22.08.681,RewSL_SL_EEG,
ping,lowB,midRight,DOWN,green,l,lowA,Stimuli\green_bar1.png,Stimuli\green_bar1.png,Stimuli\ping.png,downLeft,high,downRight,lowC,midLeft,upLeft,upRight,4,m,,,,,0,79,79,71,,,0.5,0.7,exp,m,1,0.8436442999991414,10.14,0,-7.16,-7.16,7.16,-7.16,-10.14,0,-7.16,7.16,7.16,7.16,8,228,179,180,3,SL,2,M,29,R,2025-04-17_11h22.08.681,RewSL_SL_EEG,
ping,lowB,midRight,DOWN,red,l,lowA,Stimuli\red_bar1.png,Stimuli\red_bar1.png,Stimuli\ping.png,downLeft,high,downRight,lowC,midLeft,upLeft,upRight,4,m,,,,,0,80,80,70,,,0.5,0.7,exp,m,1,0.8518932000006316,10.14,0,-7.16,-7.16,7.16,-7.16,-10.14,0,-7.16,7.16,7.16,7.16,8,228,180,181,3,SL,2,M,29,R,2025-04-17_11h22.08.681,RewSL_SL_EEG,
ping,lowA,downLeft,UP,red,r,high,Stimuli\red_bar1.png,Stimuli\red_bar1.png,Stimuli\ping.png,downRight,lowB,midRight,lowC,midLeft,upLeft,upRight,4,z,,,,,0,81,81,64,,,0.5,0.6,exp,z,1,0.6728887000008399,-7.16,-7.16,7.16,-7.16,10.14,0,-10.14,0,-7.16,7.16,7.16,7.16,8,138,181,182,3,SL,2,M,29,R,2025-04-17_11h22.08.681,RewSL_SL_EEG,
ping,high,downRight,DOWN,green,r,lowA,Stimuli\green_bar1.png,Stimuli\green_bar1.png,Stimuli\ping.png,downLeft,lowB,midRight,lowC,midLeft,upLeft,upRight,4,m,,,,,0,82,82,43,,,0.6,0.8,exp,m,1,0.7477509999989707,7.16,-7.16,-7.16,-7.16,10.14,0,-10.14,0,-7.16,7.16,7.16,7.16,8,248,182,183,3,SL,2,M,29,R,2025-04-17_11h22.08.681,RewSL_SL_EEG,
ping,high,downRight,UP,green,l,lowA,Stimuli\green_bar1.png,Stimuli\green_bar1.png,Stimuli\ping.png,downLeft,lowB,midRight,lowC,midLeft,upLeft,upRight,4,z,,,,,0,83,83,13,,,0.4,0.8,exp,z,1,0.8649426000010862,7.16,-7.16,-7.16,-7.16,10.14,0,-10.14,0,-7.16,7.16,7.16,7.16,8,148,183,184,3,SL,2,M,29,R,2025-04-17_11h22.08.681,RewSL_SL_EEG,
ping,lowC,midLeft,DOWN,red,l,lowA,Stimuli\red_bar1.png,Stimuli\red_bar1.png,Stimuli\ping.png,downLeft,lowB,midRight,high,downRight,upLeft,upRight,4,m,,,,,0,84,84,94,,,0.6,0.7,exp,m,1,0.6933554000006552,-10.14,0,-7.16,-7.16,10.14,0,7.16,-7.16,-7.16,7.16,7.16,7.16,8,218,184,185,3,SL,2,M,29,R,2025-04-17_11h22.08.681,RewSL_SL_EEG,
ping,high,downRight,UP,red,l,lowA,Stimuli\red_bar1.png,Stimuli\red_bar1.png,Stimuli\ping.png,downLeft,lowB,midRight,lowC,midLeft,upLeft,upRight,4,z,,,,,0,85,85,28,,,0.5,0.7,exp,z,1,0.985101799999029,7.16,-7.16,-7.16,-7.16,10.14,0,-10.14,0,-7.16,7.16,7.16,7.16,8,148,185,186,3,SL,2,M,29,R,2025-04-17_11h22.08.681,RewSL_SL_EEG,
ping,high,downRight,UP,green,r,lowA,Stimuli\green_bar1.png,Stimuli\green_bar1.png,Stimuli\ping.png,downLeft,lowB,midRight,lowC,midLeft,upLeft,upRight,4,z,,,,,0,86,86,17,,,0.4,0.6,exp,z,1,1.0110386000014842,7.16,-7.16,-7.16,-7.16,10.14,0,-10.14,0,-7.16,7.16,7.16,7.16,8,148,186,187,3,SL,2,M,29,R,2025-04-17_11h22.08.681,RewSL_SL_EEG,
ping,lowC,midLeft,DOWN,green,r,lowA,Stimuli\green_bar1.png,Stimuli\green_bar1.png,Stimuli\ping.png,downLeft,lowB,midRight,high,downRight,upLeft,upRight,4,m,,,,,0,87,87,99,,,0.5,0.7,exp,m,1,1.0894369000016013,-10.14,0,-7.16,-7.16,10.14,0,7.16,-7.16,-7.16,7.16,7.16,7.16,8,218,187,188,3,SL,2,M,29,R,2025-04-17_11h22.08.681,RewSL_SL_EEG,
ping,lowB,midRight,UP,green,l,lowA,Stimuli\green_bar1.png,Stimuli\green_bar1.png,Stimuli\ping.png,downLeft,high,downRight,lowC,midLeft,upLeft,upRight,4,z,,,,,0,88,88,77,,,0.5,0.6,exp,m,0,0.7441412999996828,10.14,0,-7.16,-7.16,7.16,-7.16,-10.14,0,-7.16,7.16,7.16,7.16,8,128,188,189,3,SL,2,M,29,R,2025-04-17_11h22.08.681,RewSL_SL_EEG,
ping,lowA,downLeft,DOWN,red,l,high,Stimuli\red_bar1.png,Stimuli\red_bar1.png,Stimuli\ping.png,downRight,lowB,midRight,lowC,midLeft,upLeft,upRight,4,m,,,,,0,89,89,62,,,0.5,0.6,exp,m,1,1.0116085000008752,-7.16,-7.16,7.16,-7.16,10.14,0,-10.14,0,-7.16,7.16,7.16,7.16,8,238,189,190,3,SL,2,M,29,R,2025-04-17_11h22.08.681,RewSL_SL_EEG,
ping,high,downRight,UP,red,r,lowA,Stimuli\red_bar1.png,Stimuli\red_bar1.png,Stimuli\ping.png,downLeft,lowB,midRight,lowC,midLeft,upLeft,upRight,4,z,,,,,0,90,90,24,,,0.5,0.7,exp,z,1,0.9775629000014305,7.16,-7.16,-7.16,-7.16,10.14,0,-10.14,0,-7.16,7.16,7.16,7.16,8,148,190,191,3,SL,2,M,29,R,2025-04-17_11h22.08.681,RewSL_SL_EEG,
ping,lowC,midLeft,DOWN,green,l,lowA,Stimuli\green_bar1.png,Stimuli\green_bar1.png,Stimuli\ping.png,downLeft,lowB,midRight,high,downRight,upLeft,upRight,4,m,,,,,0,91,91,95,,,0.6,0.8,exp,m,1,1.2116228000013507,-10.14,0,-7.16,-7.16,10.14,0,7.16,-7.16,-7.16,7.16,7.16,7.16,8,218,191,192,3,SL,2,M,29,R,2025-04-17_11h22.08.681,RewSL_SL_EEG,
ping,lowA,downLeft,UP,green,r,high,Stimuli\green_bar1.png,Stimuli\green_bar1.png,Stimuli\ping.png,downRight,lowB,midRight,lowC,midLeft,upLeft,upRight,4,z,,,,,0,92,92,65,,,0.4,0.6,exp,z,1,0.860216400000354,-7.16,-7.16,7.16,-7.16,10.14,0,-10.14,0,-7.16,7.16,7.16,7.16,8,138,192,193,3,SL,2,M,29,R,2025-04-17_11h22.08.681,RewSL_SL_EEG,
ping,high,downRight,DOWN,green,r,lowA,Stimuli\green_bar1.png,Stimuli\green_bar1.png,Stimuli\ping.png,downLeft,lowB,midRight,lowC,midLeft,upLeft,upRight,4,m,,,,,0,93,93,3,,,0.4,0.6,exp,z,0,0.8603211999998166,7.16,-7.16,-7.16,-7.16,10.14,0,-10.14,0,-7.16,7.16,7.16,7.16,8,248,193,194,3,SL,2,M,29,R,2025-04-17_11h22.08.681,RewSL_SL_EEG,
ping,high,downRight,UP,red,r,lowA,Stimuli\red_bar1.png,Stimuli\red_bar1.png,Stimuli\ping.png,downLeft,lowB,midRight,lowC,midLeft,upLeft,upRight,4,z,,,,,0,94,94,16,,,0.5,0.7,exp,z,1,0.7934718000014982,7.16,-7.16,-7.16,-7.16,10.14,0,-10.14,0,-7.16,7.16,7.16,7.16,8,148,194,195,3,SL,2,M,29,R,2025-04-17_11h22.08.681,RewSL_SL_EEG,
ping,high,downRight,UP,red,l,lowA,Stimuli\red_bar1.png,Stimuli\red_bar1.png,Stimuli\ping.png,downLeft,lowB,midRight,lowC,midLeft,upLeft,upRight,4,z,,,,,0,95,95,36,,,0.5,0.6,exp,z,1,1.0432330000003276,7.16,-7.16,-7.16,-7.16,10.14,0,-10.14,0,-7.16,7.16,7.16,7.16,8,148,195,196,3,SL,2,M,29,R,2025-04-17_11h22.08.681,RewSL_SL_EEG,
ping,lowB,midRight,UP,red,r,lowA,Stimuli\red_bar1.png,Stimuli\red_bar1.png,Stimuli\ping.png,downLeft,high,downRight,lowC,midLeft,upLeft,upRight,4,z,,,,,0,96,96,80,,,0.5,0.8,exp,z,1,0.7770458000013605,10.14,0,-7.16,-7.16,7.16,-7.16,-10.14,0,-7.16,7.16,7.16,7.16,8,128,196,197,3,SL,2,M,29,R,2025-04-17_11h22.08.681,RewSL_SL_EEG,
ping,high,downRight,DOWN,red,l,lowA,Stimuli\red_bar1.png,Stimuli\red_bar1.png,Stimuli\ping.png,downLeft,lowB,midRight,lowC,midLeft,upLeft,upRight,4,m,,,,,0,97,97,46,,,0.5,0.7,exp,m,1,1.0937180999990233,7.16,-7.16,-7.16,-7.16,10.14,0,-10.14,0,-7.16,7.16,7.16,7.16,8,248,197,198,3,SL,2,M,29,R,2025-04-17_11h22.08.681,RewSL_SL_EEG,
ping,lowC,midLeft,UP,green,l,lowA,Stimuli\green_bar1.png,Stimuli\green_bar1.png,Stimuli\ping.png,downLeft,lowB,midRight,high,downRight,upLeft,upRight,4,z,,,,,0,98,98,85,,,0.5,0.8,exp,z,1,0.7128443000001425,-10.14,0,-7.16,-7.16,10.14,0,7.16,-7.16,-7.16,7.16,7.16,7.16,8,118,198,199,3,SL,2,M,29,R,2025-04-17_11h22.08.681,RewSL_SL_EEG,
ping,high,downRight,UP,red,l,lowA,Stimuli\red_bar1.png,Stimuli\red_bar1.png,Stimuli\ping.png,downLeft,lowB,midRight,lowC,midLeft,upLeft,upRight,4,z,,,,,0,99,99,4,,,0.5,0.7,exp,z,1,1.0020979000000807,7.16,-7.16,-7.16,-7.16,10.14,0,-10.14,0,-7.16,7.16,7.16,7.16,8,148,199,200,3,SL,2,M,29,R,2025-04-17_11h22.08.681,RewSL_SL_EEG,
ping,high,downRight,UP,green,l,lowA,Stimuli\green_bar1.png,Stimuli\green_bar1.png,Stimuli\ping.png,downLeft,lowB,midRight,lowC,midLeft,upLeft,upRight,4,z,,,,,0,0,0,5,,,0.4,0.7,exp,z,1,0.9147087000001193,7.16,-7.16,-7.16,-7.16,10.14,0,-10.14,0,-7.16,7.16,7.16,7.16,8,148,200,201,3,SL,2,M,29,R,2025-04-17_11h22.08.681,RewSL_SL_EEG,
ping,lowA,downLeft,UP,green,l,high,Stimuli\green_bar1.png,Stimuli\green_bar1.png,Stimuli\ping.png,downRight,lowB,midRight,lowC,midLeft,upLeft,upRight,4,z,,,,,0,1,1,61,,,0.4,0.8,exp,m,0,0.8597557000011875,-7.16,-7.16,7.16,-7.16,10.14,0,-10.14,0,-7.16,7.16,7.16,7.16,8,138,201,202,3,SL,2,M,29,R,2025-04-17_11h22.08.681,RewSL_SL_EEG,
ping,high,downRight,UP,green,r,lowA,Stimuli\green_bar1.png,Stimuli\green_bar1.png,Stimuli\ping.png,downLeft,lowB,midRight,lowC,midLeft,upLeft,upRight,4,z,,,,,0,2,2,17,,,0.5,0.8,exp,z,1,0.7974563000007038,7.16,-7.16,-7.16,-7.16,10.14,0,-10.14,0,-7.16,7.16,7.16,7.16,8,148,202,203,3,SL,2,M,29,R,2025-04-17_11h22.08.681,RewSL_SL_EEG,
ping,high,downRight,DOWN,green,r,lowA,Stimuli\green_bar1.png,Stimuli\green_bar1.png,Stimuli\ping.png,downLeft,lowB,midRight,lowC,midLeft,upLeft,upRight,4,m,,,,,0,3,3,51,,,0.6,0.7,exp,m,1,0.7807652999999846,7.16,-7.16,-7.16,-7.16,10.14,0,-10.14,0,-7.16,7.16,7.16,7.16,8,248,203,204,3,SL,2,M,29,R,2025-04-17_11h22.08.681,RewSL_SL_EEG,
ping,high,downRight,DOWN,green,r,lowA,Stimuli\green_bar1.png,Stimuli\green_bar1.png,Stimuli\ping.png,downLeft,lowB,midRight,lowC,midLeft,upLeft,upRight,4,m,,,,,0,4,4,19,,,0.5,0.8,exp,m,1,0.8102855999986787,7.16,-7.16,-7.16,-7.16,10.14,0,-10.14,0,-7.16,7.16,7.16,7.16,8,248,204,205,3,SL,2,M,29,R,2025-04-17_11h22.08.681,RewSL_SL_EEG,
ping,high,downRight,DOWN,green,r,lowA,Stimuli\green_bar1.png,Stimuli\green_bar1.png,Stimuli\ping.png,downLeft,lowB,midRight,lowC,midLeft,upLeft,upRight,4,m,,,,,0,5,5,11,,,0.5,0.6,exp,m,1,0.7892591999989236,7.16,-7.16,-7.16,-7.16,10.14,0,-10.14,0,-7.16,7.16,7.16,7.16,8,248,205,206,3,SL,2,M,29,R,2025-04-17_11h22.08.681,RewSL_SL_EEG,
ping,high,downRight,DOWN,red,l,lowA,Stimuli\red_bar1.png,Stimuli\red_bar1.png,Stimuli\ping.png,downLeft,lowB,midRight,lowC,midLeft,upLeft,upRight,4,m,,,,,0,6,6,38,,,0.4,0.7,exp,z,0,1.0936258000001544,7.16,-7.16,-7.16,-7.16,10.14,0,-10.14,0,-7.16,7.16,7.16,7.16,8,248,206,207,3,SL,2,M,29,R,2025-04-17_11h22.08.681,RewSL_SL_EEG,
ping,lowA,downLeft,DOWN,green,l,high,Stimuli\green_bar1.png,Stimuli\green_bar1.png,Stimuli\ping.png,downRight,lowB,midRight,lowC,midLeft,upLeft,upRight,4,m,,,,,0,7,7,63,,,0.5,0.8,exp,m,1,0.7272690999998304,-7.16,-7.16,7.16,-7.16,10.14,0,-10.14,0,-7.16,7.16,7.16,7.16,8,238,207,208,3,SL,2,M,29,R,2025-04-17_11h22.08.681,RewSL_SL_EEG,
ping,high,downRight,DOWN,red,r,lowA,Stimuli\red_bar1.png,Stimuli\red_bar1.png,Stimuli\ping.png,downLeft,lowB,midRight,lowC,midLeft,upLeft,upRight,4,m,,,,,0,8,8,2,,,0.5,0.8,exp,m,1,0.9321125999995274,7.16,-7.16,-7.16,-7.16,10.14,0,-10.14,0,-7.16,7.16,7.16,7.16,8,248,208,209,3,SL,2,M,29,R,2025-04-17_11h22.08.681,RewSL_SL_EEG,
ping,lowC,midLeft,UP,green,l,lowA,Stimuli\green_bar1.png,Stimuli\green_bar1.png,Stimuli\ping.png,downLeft,lowB,midRight,high,downRight,upLeft,upRight,4,z,,,,,0,9,9,93,,,0.5,0.7,exp,z,1,0.6478999000009935,-10.14,0,-7.16,-7.16,10.14,0,7.16,-7.16,-7.16,7.16,7.16,7.16,8,118,209,210,3,SL,2,M,29,R,2025-04-17_11h22.08.681,RewSL_SL_EEG,
ping,high,downRight,DOWN,red,l,lowA,Stimuli\red_bar1.png,Stimuli\red_bar1.png,Stimuli\ping.png,downLeft,lowB,midRight,lowC,midLeft,upLeft,upRight,4,m,,,,,0,10,10,6,,,0.6,0.7,exp,m,1,0.6932451000011497,7.16,-7.16,-7.16,-7.16,10.14,0,-10.14,0,-7.16,7.16,7.16,7.16,8,248,210,211,3,SL,2,M,29,R,2025-04-17_11h22.08.681,RewSL_SL_EEG,
ping,lowC,midLeft,DOWN,green,r,lowA,Stimuli\green_bar1.png,Stimuli\green_bar1.png,Stimuli\ping.png,downLeft,lowB,midRight,high,downRight,upLeft,upRight,4,m,,,,,0,11,11,91,,,0.5,0.7,exp,m,1,0.7560335999987728,-10.14,0,-7.16,-7.16,10.14,0,7.16,-7.16,-7.16,7.16,7.16,7.16,8,218,211,212,3,SL,2,M,29,R,2025-04-17_11h22.08.681,RewSL_SL_EEG,
ping,lowA,downLeft,UP,red,r,high,Stimuli\red_bar1.png,Stimuli\red_bar1.png,Stimuli\ping.png,downRight,lowB,midRight,lowC,midLeft,upLeft,upRight,4,z,,,,,0,12,12,56,,,0.5,0.7,exp,z,1,0.8606550000004063,-7.16,-7.16,7.16,-7.16,10.14,0,-10.14,0,-7.16,7.16,7.16,7.16,8,138,212,213,3,SL,2,M,29,R,2025-04-17_11h22.08.681,RewSL_SL_EEG,
ping,lowC,midLeft,DOWN,green,l,lowA,Stimuli\green_bar1.png,Stimuli\green_bar1.png,Stimuli\ping.png,downLeft,lowB,midRight,high,downRight,upLeft,upRight,4,m,,,,,0,13,13,87,,,0.6,0.7,exp,m,1,0.7143393999995169,-10.14,0,-7.16,-7.16,10.14,0,7.16,-7.16,-7.16,7.16,7.16,7.16,8,218,213,214,3,SL,2,M,29,R,2025-04-17_11h22.08.681,RewSL_SL_EEG,
ping,lowC,midLeft,DOWN,red,l,lowA,Stimuli\red_bar1.png,Stimuli\red_bar1.png,Stimuli\ping.png,downLeft,lowB,midRight,high,downRight,upLeft,upRight,4,m,,,,,0,14,14,94,,,0.5,0.6,exp,m,1,0.6313950999992812,-10.14,0,-7.16,-7.16,10.14,0,7.16,-7.16,-7.16,7.16,7.16,7.16,8,218,214,215,3,SL,2,M,29,R,2025-04-17_11h22.08.681,RewSL_SL_EEG,
ping,high,downRight,UP,green,l,lowA,Stimuli\green_bar1.png,Stimuli\green_bar1.png,Stimuli\ping.png,downLeft,lowB,midRight,lowC,midLeft,upLeft,upRight,4,z,,,,,0,15,15,13,,,0.5,0.7,exp,z,1,0.6808774999990419,7.16,-7.16,-7.16,-7.16,10.14,0,-10.14,0,-7.16,7.16,7.16,7.16,8,148,215,216,3,SL,2,M,29,R,2025-04-17_11h22.08.681,RewSL_SL_EEG,
ping,lowB,midRight,DOWN,red,r,lowA,Stimuli\red_bar1.png,Stimuli\red_bar1.png,Stimuli\ping.png,downLeft,high,downRight,lowC,midLeft,upLeft,upRight,4,m,,,,,0,16,16,82,,,0.5,0.7,exp,m,1,0.6062904999998864,10.14,0,-7.16,-7.16,7.16,-7.16,-10.14,0,-7.16,7.16,7.16,7.16,8,228,216,217,3,SL,2,M,29,R,2025-04-17_11h22.08.681,RewSL_SL_EEG,
ping,high,downRight,UP,green,l,lowA,Stimuli\green_bar1.png,Stimuli\green_bar1.png,Stimuli\ping.png,downLeft,lowB,midRight,lowC,midLeft,upLeft,upRight,4,z,,,,,0,17,17,21,,,0.5,0.7,exp,z,1,0.722980300000927,7.16,-7.16,-7.16,-7.16,10.14,0,-10.14,0,-7.16,7.16,7.16,7.16,8,148,217,218,3,SL,2,M,29,R,2025-04-17_11h22.08.681,RewSL_SL_EEG,
ping,high,downRight,UP,red,l,lowA,Stimuli\red_bar1.png,Stimuli\red_bar1.png,Stimuli\ping.png,downLeft,lowB,midRight,lowC,midLeft,upLeft,upRight,4,z,,,,,0,18,18,28,,,0.5,0.7,exp,z,1,0.69347149999885,7.16,-7.16,-7.16,-7.16,10.14,0,-10.14,0,-7.16,7.16,7.16,7.16,8,148,218,219,3,SL,2,M,29,R,2025-04-17_11h22.08.681,RewSL_SL_EEG,
ping,high,downRight,DOWN,green,r,lowA,Stimuli\green_bar1.png,Stimuli\green_bar1.png,Stimuli\ping.png,downLeft,lowB,midRight,lowC,midLeft,upLeft,upRight,4,m,,,,,0,19,19,27,,,0.6,0.7,exp,m,1,0.5983604000011837,7.16,-7.16,-7.16,-7.16,10.14,0,-10.14,0,-7.16,7.16,7.16,7.16,8,248,219,220,3,SL,2,M,29,R,2025-04-17_11h22.08.681,RewSL_SL_EEG,
ping,lowB,midRight,UP,green,r,lowA,Stimuli\green_bar1.png,Stimuli\green_bar1.png,Stimuli\ping.png,downLeft,high,downRight,lowC,midLeft,upLeft,upRight,4,z,,,,,0,20,20,73,,,0.5,0.7,exp,m,0,0.6854562999997142,10.14,0,-7.16,-7.16,7.16,-7.16,-10.14,0,-7.16,7.16,7.16,7.16,8,128,220,221,3,SL,2,M,29,R,2025-04-17_11h22.08.681,RewSL_SL_EEG,
ping,high,downRight,UP,red,r,lowA,Stimuli\red_bar1.png,Stimuli\red_bar1.png,Stimuli\ping.png,downLeft,lowB,midRight,lowC,midLeft,upLeft,upRight,4,z,,,,,0,21,21,8,,,0.5,0.7,exp,z,1,0.7555159000003187,7.16,-7.16,-7.16,-7.16,10.14,0,-10.14,0,-7.16,7.16,7.16,7.16,8,148,221,222,3,SL,2,M,29,R,2025-04-17_11h22.08.681,RewSL_SL_EEG,
ping,high,downRight,DOWN,green,r,lowA,Stimuli\green_bar1.png,Stimuli\green_bar1.png,Stimuli\ping.png,downLeft,lowB,midRight,lowC,midLeft,upLeft,upRight,4,m,,,,,0,22,22,3,,,0.5,0.7,exp,m,1,0.8770186000001559,7.16,-7.16,-7.16,-7.16,10.14,0,-10.14,0,-7.16,7.16,7.16,7.16,8,248,222,223,3,SL,2,M,29,R,2025-04-17_11h22.08.681,RewSL_SL_EEG,
ping,lowA,downLeft,DOWN,red,r,high,Stimuli\red_bar1.png,Stimuli\red_bar1.png,Stimuli\ping.png,downRight,lowB,midRight,lowC,midLeft,upLeft,upRight,4,m,,,,,0,23,23,66,,,0.6,0.6,exp,m,1,0.9271431999986817,-7.16,-7.16,7.16,-7.16,10.14,0,-10.14,0,-7.16,7.16,7.16,7.16,8,238,223,224,3,SL,2,M,29,R,2025-04-17_11h22.08.681,RewSL_SL_EEG,
ping,high,downRight,DOWN,green,l,lowA,Stimuli\green_bar1.png,Stimuli\green_bar1.png,Stimuli\ping.png,downLeft,lowB,midRight,lowC,midLeft,upLeft,upRight,4,m,,,,,0,24,24,15,,,0.5,0.7,exp,m,1,0.7397044999997888,7.16,-7.16,-7.16,-7.16,10.14,0,-10.14,0,-7.16,7.16,7.16,7.16,8,248,224,225,3,SL,2,M,29,R,2025-04-17_11h22.08.681,RewSL_SL_EEG,
ping,lowC,midLeft,DOWN,green,r,lowA,Stimuli\green_bar1.png,Stimuli\green_bar1.png,Stimuli\ping.png,downLeft,lowB,midRight,high,downRight,upLeft,upRight,4,m,,,,,0,25,25,99,,,0.4,0.6,exp,m,1,0.6233016999995016,-10.14,0,-7.16,-7.16,10.14,0,7.16,-7.16,-7.16,7.16,7.16,7.16,8,218,225,226,3,SL,2,M,29,R,2025-04-17_11h22.08.681,RewSL_SL_EEG,
ping,lowA,downLeft,DOWN,green,r,high,Stimuli\green_bar1.png,Stimuli\green_bar1.png,Stimuli\ping.png,downRight,lowB,midRight,lowC,midLeft,upLeft,upRight,4,m,,,,,0,26,26,59,,,0.5,0.6,exp,m,1,0.6811938999999256,-7.16,-7.16,7.16,-7.16,10.14,0,-10.14,0,-7.16,7.16,7.16,7.16,8,238,226,227,3,SL,2,M,29,R,2025-04-17_11h22.08.681,RewSL_SL_EEG,
ping,lowC,midLeft,UP,green,l,lowA,Stimuli\green_bar1.png,Stimuli\green_bar1.png,Stimuli\ping.png,downLeft,lowB,midRight,high,downRight,upLeft,upRight,4,z,,,,,0,27,27,85,,,0.6,0.6,exp,z,1,0.819382300000143,-10.14,0,-7.16,-7.16,10.14,0,7.16,-7.16,-7.16,7.16,7.16,7.16,8,118,227,228,3,SL,2,M,29,R,2025-04-17_11h22.08.681,RewSL_SL_EEG,
ping,lowC,midLeft,DOWN,red,r,lowA,Stimuli\red_bar1.png,Stimuli\red_bar1.png,Stimuli\ping.png,downLeft,lowB,midRight,high,downRight,upLeft,upRight,4,m,,,,,0,28,28,98,,,0.4,0.7,exp,m,1,0.648242900000696,-10.14,0,-7.16,-7.16,10.14,0,7.16,-7.16,-7.16,7.16,7.16,7.16,8,218,228,229,3,SL,2,M,29,R,2025-04-17_11h22.08.681,RewSL_SL_EEG,
ping,high,downRight,UP,red,l,lowA,Stimuli\red_bar1.png,Stimuli\red_bar1.png,Stimuli\ping.png,downLeft,lowB,midRight,lowC,midLeft,upLeft,upRight,4,z,,,,,0,29,29,4,,,0.5,0.7,exp,z,1,0.5895114999984798,7.16,-7.16,-7.16,-7.16,10.14,0,-10.14,0,-7.16,7.16,7.16,7.16,8,148,229,230,3,SL,2,M,29,R,2025-04-17_11h22.08.681,RewSL_SL_EEG,
ping,high,downRight,DOWN,green,r,lowA,Stimuli\green_bar1.png,Stimuli\green_bar1.png,Stimuli\ping.png,downLeft,lowB,midRight,lowC,midLeft,upLeft,upRight,4,m,,,,,0,30,30,35,,,0.6,0.7,exp,m,1,0.6685931000010896,7.16,-7.16,-7.16,-7.16,10.14,0,-10.14,0,-7.16,7.16,7.16,7.16,8,248,230,231,3,SL,2,M,29,R,2025-04-17_11h22.08.681,RewSL_SL_EEG,
ping,high,downRight,DOWN,red,r,lowA,Stimuli\red_bar1.png,Stimuli\red_bar1.png,Stimuli\ping.png,downLeft,lowB,midRight,lowC,midLeft,upLeft,upRight,4,m,,,,,0,31,31,50,,,0.5,0.7,exp,m,1,0.7725687000001926,7.16,-7.16,-7.16,-7.16,10.14,0,-10.14,0,-7.16,7.16,7.16,7.16,8,248,231,232,3,SL,2,M,29,R,2025-04-17_11h22.08.681,RewSL_SL_EEG,
ping,lowA,downLeft,DOWN,green,l,high,Stimuli\green_bar1.png,Stimuli\green_bar1.png,Stimuli\ping.png,downRight,lowB,midRight,lowC,midLeft,upLeft,upRight,4,m,,,,,0,32,32,55,,,0.5,0.6,exp,m,1,0.8728348999993614,-7.16,-7.16,7.16,-7.16,10.14,0,-10.14,0,-7.16,7.16,7.16,7.16,8,238,232,233,3,SL,2,M,29,R,2025-04-17_11h22.08.681,RewSL_SL_EEG,
ping,high,downRight,UP,red,r,lowA,Stimuli\red_bar1.png,Stimuli\red_bar1.png,Stimuli\ping.png,downLeft,lowB,midRight,lowC,midLeft,upLeft,upRight,4,z,,,,,0,33,33,32,,,0.4,0.6,exp,z,1,0.7518240999997943,7.16,-7.16,-7.16,-7.16,10.14,0,-10.14,0,-7.16,7.16,7.16,7.16,8,148,233,234,3,SL,2,M,29,R,2025-04-17_11h22.08.681,RewSL_SL_EEG,
ping,lowC,midLeft,UP,red,l,lowA,Stimuli\red_bar1.png,Stimuli\red_bar1.png,Stimuli\ping.png,downLeft,lowB,midRight,high,downRight,upLeft,upRight,4,z,,,,,0,34,34,92,,,0.6,0.8,exp,z,1,0.5940203000009205,-10.14,0,-7.16,-7.16,10.14,0,7.16,-7.16,-7.16,7.16,7.16,7.16,8,118,234,235,3,SL,2,M,29,R,2025-04-17_11h22.08.681,RewSL_SL_EEG,
ping,lowA,downLeft,UP,green,l,high,Stimuli\green_bar1.png,Stimuli\green_bar1.png,Stimuli\ping.png,downRight,lowB,midRight,lowC,midLeft,upLeft,upRight,4,z,,,,,0,35,35,53,,,0.5,0.6,exp,z,1,0.8556334000004426,-7.16,-7.16,7.16,-7.16,10.14,0,-10.14,0,-7.16,7.16,7.16,7.16,8,138,235,236,3,SL,2,M,29,R,2025-04-17_11h22.08.681,RewSL_SL_EEG,
ping,high,downRight,UP,green,r,lowA,Stimuli\green_bar1.png,Stimuli\green_bar1.png,Stimuli\ping.png,downLeft,lowB,midRight,lowC,midLeft,upLeft,upRight,4,z,,,,,0,36,36,33,,,0.5,0.6,exp,z,1,0.7682540999994671,7.16,-7.16,-7.16,-7.16,10.14,0,-10.14,0,-7.16,7.16,7.16,7.16,8,148,236,237,3,SL,2,M,29,R,2025-04-17_11h22.08.681,RewSL_SL_EEG,
ping,high,downRight,UP,red,l,lowA,Stimuli\red_bar1.png,Stimuli\red_bar1.png,Stimuli\ping.png,downLeft,lowB,midRight,lowC,midLeft,upLeft,upRight,4,z,,,,,0,37,37,12,,,0.4,0.7,exp,z,1,0.7481363999995665,7.16,-7.16,-7.16,-7.16,10.14,0,-10.14,0,-7.16,7.16,7.16,7.16,8,148,237,238,3,SL,2,M,29,R,2025-04-17_11h22.08.681,RewSL_SL_EEG,
ping,lowB,midRight,DOWN,green,l,lowA,Stimuli\green_bar1.png,Stimuli\green_bar1.png,Stimuli\ping.png,downLeft,high,downRight,lowC,midLeft,upLeft,upRight,4,m,,,,,0,38,38,71,,,0.5,0.7,exp,m,1,0.618969900000593,10.14,0,-7.16,-7.16,7.16,-7.16,-10.14,0,-7.16,7.16,7.16,7.16,8,228,238,239,3,SL,2,M,29,R,2025-04-17_11h22.08.681,RewSL_SL_EEG,
ping,lowA,downLeft,DOWN,red,r,high,Stimuli\red_bar1.png,Stimuli\red_bar1.png,Stimuli\ping.png,downRight,lowB,midRight,lowC,midLeft,upLeft,upRight,4,m,,,,,0,39,39,58,,,0.4,0.6,exp,m,1,0.7435958000005485,-7.16,-7.16,7.16,-7.16,10.14,0,-10.14,0,-7.16,7.16,7.16,7.16,8,238,239,240,3,SL,2,M,29,R,2025-04-17_11h22.08.681,RewSL_SL_EEG,
ping,lowA,downLeft,DOWN,green,r,high,Stimuli\green_bar1.png,Stimuli\green_bar1.png,Stimuli\ping.png,downRight,lowB,midRight,lowC,midLeft,upLeft,upRight,4,m,,,,,0,40,40,67,,,0.5,0.8,exp,m,1,0.8648683999999776,-7.16,-7.16,7.16,-7.16,10.14,0,-10.14,0,-7.16,7.16,7.16,7.16,8,238,240,241,3,SL,2,M,29,R,2025-04-17_11h22.08.681,RewSL_SL_EEG,
ping,lowB,midRight,UP,red,l,lowA,Stimuli\red_bar1.png,Stimuli\red_bar1.png,Stimuli\ping.png,downLeft,high,downRight,lowC,midLeft,upLeft,upRight,4,z,,,,,0,41,41,76,,,0.4,0.7,exp,z,1,0.6058794000000489,10.14,0,-7.16,-7.16,7.16,-7.16,-10.14,0,-7.16,7.16,7.16,7.16,8,128,241,242,3,SL,2,M,29,R,2025-04-17_11h22.08.681,RewSL_SL_EEG,
ping,high,downRight,UP,red,l,lowA,Stimuli\red_bar1.png,Stimuli\red_bar1.png,Stimuli\ping.png,downLeft,lowB,midRight,lowC,midLeft,upLeft,upRight,4,z,,,,,0,42,42,20,,,0.6,0.7,exp,z,1,0.7647596999995585,7.16,-7.16,-7.16,-7.16,10.14,0,-10.14,0,-7.16,7.16,7.16,7.16,8,148,242,243,3,SL,2,M,29,R,2025-04-17_11h22.08.681,RewSL_SL_EEG,
ping,high,downRight,UP,red,l,lowA,Stimuli\red_bar1.png,Stimuli\red_bar1.png,Stimuli\ping.png,downLeft,lowB,midRight,lowC,midLeft,upLeft,upRight,4,z,,,,,0,43,43,36,,,0.6,0.7,exp,m,0,0.7150572999998985,7.16,-7.16,-7.16,-7.16,10.14,0,-10.14,0,-7.16,7.16,7.16,7.16,8,148,243,244,3,SL,2,M,29,R,2025-04-17_11h22.08.681,RewSL_SL_EEG,
ping,lowB,midRight,UP,red,r,lowA,Stimuli\red_bar1.png,Stimuli\red_bar1.png,Stimuli\ping.png,downLeft,high,downRight,lowC,midLeft,upLeft,upRight,4,z,,,,,0,44,44,80,,,0.4,0.6,exp,z,1,0.664750500000082,10.14,0,-7.16,-7.16,7.16,-7.16,-10.14,0,-7.16,7.16,7.16,7.16,8,128,244,245,3,SL,2,M,29,R,2025-04-17_11h22.08.681,RewSL_SL_EEG,
ping,lowA,downLeft,UP,green,r,high,Stimuli\green_bar1.png,Stimuli\green_bar1.png,Stimuli\ping.png,downRight,lowB,midRight,lowC,midLeft,upLeft,upRight,4,z,,,,,0,45,45,65,,,0.6,0.8,exp,z,1,0.7729283999997278,-7.16,-7.16,7.16,-7.16,10.14,0,-10.14,0,-7.16,7.16,7.16,7.16,8,138,245,246,3,SL,2,M,29,R,2025-04-17_11h22.08.681,RewSL_SL_EEG,
ping,high,downRight,DOWN,red,l,lowA,Stimuli\red_bar1.png,Stimuli\red_bar1.png,Stimuli\ping.png,downLeft,lowB,midRight,lowC,midLeft,upLeft,upRight,4,m,,,,,0,46,46,22,,,0.6,0.8,exp,m,1,0.7056018999992375,7.16,-7.16,-7.16,-7.16,10.14,0,-10.14,0,-7.16,7.16,7.16,7.16,8,248,246,247,3,SL,2,M,29,R,2025-04-17_11h22.08.681,RewSL_SL_EEG,
ping,lowA,downLeft,DOWN,red,l,high,Stimuli\red_bar1.png,Stimuli\red_bar1.png,Stimuli\ping.png,downRight,lowB,midRight,lowC,midLeft,upLeft,upRight,4,m,,,,,0,47,47,54,,,0.5,0.8,exp,m,1,0.6526785000005475,-7.16,-7.16,7.16,-7.16,10.14,0,-10.14,0,-7.16,7.16,7.16,7.16,8,238,247,248,3,SL,2,M,29,R,2025-04-17_11h22.08.681,RewSL_SL_EEG,
ping,high,downRight,UP,red,r,lowA,Stimuli\red_bar1.png,Stimuli\red_bar1.png,Stimuli\ping.png,downLeft,lowB,midRight,lowC,midLeft,upLeft,upRight,4,z,,,,,0,48,48,48,,,0.5,0.7,exp,z,1,0.7392746999994415,7.16,-7.16,-7.16,-7.16,10.14,0,-10.14,0,-7.16,7.16,7.16,7.16,8,148,248,249,3,SL,2,M,29,R,2025-04-17_11h22.08.681,RewSL_SL_EEG,
ping,lowB,midRight,UP,red,r,lowA,Stimuli\red_bar1.png,Stimuli\red_bar1.png,Stimuli\ping.png,downLeft,high,downRight,lowC,midLeft,upLeft,upRight,4,z,,,,,0,49,49,72,,,0.6,0.7,exp,z,1,0.6640942000012728,10.14,0,-7.16,-7.16,7.16,-7.16,-10.14,0,-7.16,7.16,7.16,7.16,8,128,249,250,3,SL,2,M,29,R,2025-04-17_11h22.08.681,RewSL_SL_EEG,
ping,lowB,midRight,DOWN,red,r,lowA,Stimuli\red_bar1.png,Stimuli\red_bar1.png,Stimuli\ping.png,downLeft,high,downRight,lowC,midLeft,upLeft,upRight,4,m,,,,,0,50,50,74,,,0.5,0.6,exp,m,1,0.6073455999994621,10.14,0,-7.16,-7.16,7.16,-7.16,-10.14,0,-7.16,7.16,7.16,7.16,8,228,250,251,3,SL,2,M,29,R,2025-04-17_11h22.08.681,RewSL_SL_EEG,
ping,high,downRight,DOWN,red,r,lowA,Stimuli\red_bar1.png,Stimuli\red_bar1.png,Stimuli\ping.png,downLeft,lowB,midRight,lowC,midLeft,upLeft,upRight,4,m,,,,,0,51,51,18,,,0.5,0.8,exp,z,0,0.6891880000002857,7.16,-7.16,-7.16,-7.16,10.14,0,-10.14,0,-7.16,7.16,7.16,7.16,8,248,251,252,3,SL,2,M,29,R,2025-04-17_11h22.08.681,RewSL_SL_EEG,
ping,high,downRight,UP,red,r,lowA,Stimuli\red_bar1.png,Stimuli\red_bar1.png,Stimuli\ping.png,downLeft,lowB,midRight,lowC,midLeft,upLeft,upRight,4,z,,,,,0,52,52,0,,,0.4,0.7,exp,z,1,0.6347273999999743,7.16,-7.16,-7.16,-7.16,10.14,0,-10.14,0,-7.16,7.16,7.16,7.16,8,148,252,253,3,SL,2,M,29,R,2025-04-17_11h22.08.681,RewSL_SL_EEG,
ping,high,downRight,UP,red,r,lowA,Stimuli\red_bar1.png,Stimuli\red_bar1.png,Stimuli\ping.png,downLeft,lowB,midRight,lowC,midLeft,upLeft,upRight,4,z,,,,,0,53,53,24,,,0.5,0.7,exp,z,1,0.826707099999112,7.16,-7.16,-7.16,-7.16,10.14,0,-10.14,0,-7.16,7.16,7.16,7.16,8,148,253,254,3,SL,2,M,29,R,2025-04-17_11h22.08.681,RewSL_SL_EEG,
ping,lowC,midLeft,UP,green,r,lowA,Stimuli\green_bar1.png,Stimuli\green_bar1.png,Stimuli\ping.png,downLeft,lowB,midRight,high,downRight,upLeft,upRight,4,z,,,,,0,54,54,89,,,0.4,0.6,exp,z,1,0.7603243000012299,-10.14,0,-7.16,-7.16,10.14,0,7.16,-7.16,-7.16,7.16,7.16,7.16,8,118,254,255,3,SL,2,M,29,R,2025-04-17_11h22.08.681,RewSL_SL_EEG,
ping,lowB,midRight,DOWN,red,l,lowA,Stimuli\red_bar1.png,Stimuli\red_bar1.png,Stimuli\ping.png,downLeft,high,downRight,lowC,midLeft,upLeft,upRight,4,m,,,,,0,55,55,78,,,0.5,0.6,exp,m,1,0.5769354999993084,10.14,0,-7.16,-7.16,7.16,-7.16,-10.14,0,-7.16,7.16,7.16,7.16,8,228,255,256,3,SL,2,M,29,R,2025-04-17_11h22.08.681,RewSL_SL_EEG,
ping,high,downRight,UP,green,r,lowA,Stimuli\green_bar1.png,Stimuli\green_bar1.png,Stimuli\ping.png,downLeft,lowB,midRight,lowC,midLeft,upLeft,upRight,4,z,,,,,0,56,56,25,,,0.4,0.8,exp,z,1,0.7900044000016351,7.16,-7.16,-7.16,-7.16,10.14,0,-10.14,0,-7.16,7.16,7.16,7.16,8,148,256,257,3,SL,2,M,29,R,2025-04-17_11h22.08.681,RewSL_SL_EEG,
ping,high,downRight,DOWN,green,l,lowA,Stimuli\green_bar1.png,Stimuli\green_bar1.png,Stimuli\ping.png,downLeft,lowB,midRight,lowC,midLeft,upLeft,upRight,4,m,,,,,0,57,57,47,,,0.4,0.6,exp,m,1,0.5769120000004477,7.16,-7.16,-7.16,-7.16,10.14,0,-10.14,0,-7.16,7.16,7.16,7.16,8,248,257,258,3,SL,2,M,29,R,2025-04-17_11h22.08.681,RewSL_SL_EEG,
ping,high,downRight,DOWN,green,l,lowA,Stimuli\green_bar1.png,Stimuli\green_bar1.png,Stimuli\ping.png,downLeft,lowB,midRight,lowC,midLeft,upLeft,upRight,4,m,,,,,0,58,58,39,,,0.5,0.7,exp,m,1,0.6318851999985782,7.16,-7.16,-7.16,-7.16,10.14,0,-10.14,0,-7.16,7.16,7.16,7.16,8,248,258,259,3,SL,2,M,29,R,2025-04-17_11h22.08.681,RewSL_SL_EEG,
ping,high,downRight,DOWN,green,r,lowA,Stimuli\green_bar1.png,Stimuli\green_bar1.png,Stimuli\ping.png,downLeft,lowB,midRight,lowC,midLeft,upLeft,upRight,4,m,,,,,0,59,59,43,,,0.5,0.7,exp,z,0,0.6306349999995291,7.16,-7.16,-7.16,-7.16,10.14,0,-10.14,0,-7.16,7.16,7.16,7.16,8,248,259,260,3,SL,2,M,29,R,2025-04-17_11h22.08.681,RewSL_SL_EEG,
ping,high,downRight,DOWN,green,l,lowA,Stimuli\green_bar1.png,Stimuli\green_bar1.png,Stimuli\ping.png,downLeft,lowB,midRight,lowC,midLeft,upLeft,upRight,4,m,,,,,0,60,60,23,,,0.6,0.8,exp,m,1,0.5862090999999054,7.16,-7.16,-7.16,-7.16,10.14,0,-10.14,0,-7.16,7.16,7.16,7.16,8,248,260,261,3,SL,2,M,29,R,2025-04-17_11h22.08.681,RewSL_SL_EEG,
ping,lowC,midLeft,DOWN,red,l,lowA,Stimuli\red_bar1.png,Stimuli\red_bar1.png,Stimuli\ping.png,downLeft,lowB,midRight,high,downRight,upLeft,upRight,4,m,,,,,0,61,61,86,,,0.4,0.7,exp,m,1,0.6060268000001088,-10.14,0,-7.16,-7.16,10.14,0,7.16,-7.16,-7.16,7.16,7.16,7.16,8,218,261,262,3,SL,2,M,29,R,2025-04-17_11h22.08.681,RewSL_SL_EEG,
ping,high,downRight,UP,red,r,lowA,Stimuli\red_bar1.png,Stimuli\red_bar1.png,Stimuli\ping.png,downLeft,lowB,midRight,lowC,midLeft,upLeft,upRight,4,z,,,,,0,62,62,16,,,0.6,0.7,exp,z,1,0.718755500000043,7.16,-7.16,-7.16,-7.16,10.14,0,-10.14,0,-7.16,7.16,7.16,7.16,8,148,262,263,3,SL,2,M,29,R,2025-04-17_11h22.08.681,RewSL_SL_EEG,
ping,high,downRight,DOWN,red,r,lowA,Stimuli\red_bar1.png,Stimuli\red_bar1.png,Stimuli\ping.png,downLeft,lowB,midRight,lowC,midLeft,upLeft,upRight,4,m,,,,,0,63,63,42,,,0.5,0.7,exp,m,1,0.5309171000008064,7.16,-7.16,-7.16,-7.16,10.14,0,-10.14,0,-7.16,7.16,7.16,7.16,8,248,263,264,3,SL,2,M,29,R,2025-04-17_11h22.08.681,RewSL_SL_EEG,
ping,lowA,downLeft,UP,red,l,high,Stimuli\red_bar1.png,Stimuli\red_bar1.png,Stimuli\ping.png,downRight,lowB,midRight,lowC,midLeft,upLeft,upRight,4,z,,,,,0,64,64,52,,,0.4,0.7,exp,z,1,0.7564347999996244,-7.16,-7.16,7.16,-7.16,10.14,0,-10.14,0,-7.16,7.16,7.16,7.16,8,138,264,265,3,SL,2,M,29,R,2025-04-17_11h22.08.681,RewSL_SL_EEG,
ping,lowB,midRight,DOWN,red,l,lowA,Stimuli\red_bar1.png,Stimuli\red_bar1.png,Stimuli\ping.png,downLeft,high,downRight,lowC,midLeft,upLeft,upRight,4,m,,,,,0,65,65,70,,,0.5,0.7,exp,m,1,0.7143873000004533,10.14,0,-7.16,-7.16,7.16,-7.16,-10.14,0,-7.16,7.16,7.16,7.16,8,228,265,266,3,SL,2,M,29,R,2025-04-17_11h22.08.681,RewSL_SL_EEG,
ping,high,downRight,UP,green,r,lowA,Stimuli\green_bar1.png,Stimuli\green_bar1.png,Stimuli\ping.png,downLeft,lowB,midRight,lowC,midLeft,upLeft,upRight,4,z,,,,,0,66,66,41,,,0.4,0.7,exp,z,1,0.643419800000629,7.16,-7.16,-7.16,-7.16,10.14,0,-10.14,0,-7.16,7.16,7.16,7.16,8,148,266,267,3,SL,2,M,29,R,2025-04-17_11h22.08.681,RewSL_SL_EEG,
ping,lowC,midLeft,DOWN,green,l,lowA,Stimuli\green_bar1.png,Stimuli\green_bar1.png,Stimuli\ping.png,downLeft,lowB,midRight,high,downRight,upLeft,upRight,4,m,,,,,0,67,67,95,,,0.4,0.6,exp,m,1,0.6903041999994457,-10.14,0,-7.16,-7.16,10.14,0,7.16,-7.16,-7.16,7.16,7.16,7.16,8,218,267,268,3,SL,2,M,29,R,2025-04-17_11h22.08.681,RewSL_SL_EEG,
ping,lowC,midLeft,DOWN,red,r,lowA,Stimuli\red_bar1.png,Stimuli\red_bar1.png,Stimuli\ping.png,downLeft,lowB,midRight,high,downRight,upLeft,upRight,4,m,,,,,0,68,68,90,,,0.5,0.7,exp,m,1,0.6646620000010444,-10.14,0,-7.16,-7.16,10.14,0,7.16,-7.16,-7.16,7.16,7.16,7.16,8,218,268,269,3,SL,2,M,29,R,2025-04-17_11h22.08.681,RewSL_SL_EEG,
ping,lowB,midRight,UP,green,l,lowA,Stimuli\green_bar1.png,Stimuli\green_bar1.png,Stimuli\ping.png,downLeft,high,downRight,lowC,midLeft,upLeft,upRight,4,z,,,,,0,69,69,77,,,0.4,0.7,exp,m,0,0.6259437999997317,10.14,0,-7.16,-7.16,7.16,-7.16,-10.14,0,-7.16,7.16,7.16,7.16,8,128,269,270,3,SL,2,M,29,R,2025-04-17_11h22.08.681,RewSL_SL_EEG,
ping,high,downRight,DOWN,red,r,lowA,Stimuli\red_bar1.png,Stimuli\red_bar1.png,Stimuli\ping.png,downLeft,lowB,midRight,lowC,midLeft,upLeft,upRight,4,m,,,,,0,70,70,26,,,0.5,0.8,exp,m,1,0.8351236999988032,7.16,-7.16,-7.16,-7.16,10.14,0,-10.14,0,-7.16,7.16,7.16,7.16,8,248,270,271,3,SL,2,M,29,R,2025-04-17_11h22.08.681,RewSL_SL_EEG,
ping,lowB,midRight,DOWN,green,r,lowA,Stimuli\green_bar1.png,Stimuli\green_bar1.png,Stimuli\ping.png,downLeft,high,downRight,lowC,midLeft,upLeft,upRight,4,m,,,,,0,71,71,83,,,0.5,0.7,exp,m,1,0.5684953999989375,10.14,0,-7.16,-7.16,7.16,-7.16,-10.14,0,-7.16,7.16,7.16,7.16,8,228,271,272,3,SL,2,M,29,R,2025-04-17_11h22.08.681,RewSL_SL_EEG,
ping,lowB,midRight,UP,green,r,lowA,Stimuli\green_bar1.png,Stimuli\green_bar1.png,Stimuli\ping.png,downLeft,high,downRight,lowC,midLeft,upLeft,upRight,4,z,,,,,0,72,72,81,,,0.4,0.6,exp,m,0,0.5518734999986918,10.14,0,-7.16,-7.16,7.16,-7.16,-10.14,0,-7.16,7.16,7.16,7.16,8,128,272,273,3,SL,2,M,29,R,2025-04-17_11h22.08.681,RewSL_SL_EEG,
ping,lowB,midRight,DOWN,green,l,lowA,Stimuli\green_bar1.png,Stimuli\green_bar1.png,Stimuli\ping.png,downLeft,high,downRight,lowC,midLeft,upLeft,upRight,4,m,,,,,0,73,73,79,,,0.6,0.7,exp,m,1,0.7770837999996729,10.14,0,-7.16,-7.16,7.16,-7.16,-10.14,0,-7.16,7.16,7.16,7.16,8,228,273,274,3,SL,2,M,29,R,2025-04-17_11h22.08.681,RewSL_SL_EEG,
ping,lowC,midLeft,UP,red,r,lowA,Stimuli\red_bar1.png,Stimuli\red_bar1.png,Stimuli\ping.png,downLeft,lowB,midRight,high,downRight,upLeft,upRight,4,z,,,,,0,74,74,96,,,0.6,0.8,exp,z,1,0.5655425999993895,-10.14,0,-7.16,-7.16,10.14,0,7.16,-7.16,-7.16,7.16,7.16,7.16,8,118,274,275,3,SL,2,M,29,R,2025-04-17_11h22.08.681,RewSL_SL_EEG,
ping,high,downRight,UP,red,r,lowA,Stimuli\red_bar1.png,Stimuli\red_bar1.png,Stimuli\ping.png,downLeft,lowB,midRight,lowC,midLeft,upLeft,upRight,4,z,,,,,0,75,75,40,,,0.4,0.7,exp,z,1,0.8813800999996602,7.16,-7.16,-7.16,-7.16,10.14,0,-10.14,0,-7.16,7.16,7.16,7.16,8,148,275,276,3,SL,2,M,29,R,2025-04-17_11h22.08.681,RewSL_SL_EEG,
ping,high,downRight,UP,green,l,lowA,Stimuli\green_bar1.png,Stimuli\green_bar1.png,Stimuli\ping.png,downLeft,lowB,midRight,lowC,midLeft,upLeft,upRight,4,z,,,,,0,76,76,29,,,0.6,0.8,exp,z,1,0.6230352999991737,7.16,-7.16,-7.16,-7.16,10.14,0,-10.14,0,-7.16,7.16,7.16,7.16,8,148,276,277,3,SL,2,M,29,R,2025-04-17_11h22.08.681,RewSL_SL_EEG,
ping,lowB,midRight,UP,green,l,lowA,Stimuli\green_bar1.png,Stimuli\green_bar1.png,Stimuli\ping.png,downLeft,high,downRight,lowC,midLeft,upLeft,upRight,4,z,,,,,0,77,77,69,,,0.4,0.7,exp,m,0,0.6273574000006192,10.14,0,-7.16,-7.16,7.16,-7.16,-10.14,0,-7.16,7.16,7.16,7.16,8,128,277,278,3,SL,2,M,29,R,2025-04-17_11h22.08.681,RewSL_SL_EEG,
ping,lowC,midLeft,UP,red,l,lowA,Stimuli\red_bar1.png,Stimuli\red_bar1.png,Stimuli\ping.png,downLeft,lowB,midRight,high,downRight,upLeft,upRight,4,z,,,,,0,78,78,84,,,0.5,0.7,exp,z,1,0.6523790000010194,-10.14,0,-7.16,-7.16,10.14,0,7.16,-7.16,-7.16,7.16,7.16,7.16,8,118,278,279,3,SL,2,M,29,R,2025-04-17_11h22.08.681,RewSL_SL_EEG,
ping,high,downRight,UP,green,r,lowA,Stimuli\green_bar1.png,Stimuli\green_bar1.png,Stimuli\ping.png,downLeft,lowB,midRight,lowC,midLeft,upLeft,upRight,4,z,,,,,0,79,79,49,,,0.4,0.6,exp,z,1,0.8102079000000231,7.16,-7.16,-7.16,-7.16,10.14,0,-10.14,0,-7.16,7.16,7.16,7.16,8,148,279,280,3,SL,2,M,29,R,2025-04-17_11h22.08.681,RewSL_SL_EEG,
ping,high,downRight,DOWN,red,r,lowA,Stimuli\red_bar1.png,Stimuli\red_bar1.png,Stimuli\ping.png,downLeft,lowB,midRight,lowC,midLeft,upLeft,upRight,4,m,,,,,0,80,80,10,,,0.5,0.7,exp,m,1,0.8312246000004961,7.16,-7.16,-7.16,-7.16,10.14,0,-10.14,0,-7.16,7.16,7.16,7.16,8,248,280,281,3,SL,2,M,29,R,2025-04-17_11h22.08.681,RewSL_SL_EEG,
ping,lowC,midLeft,UP,red,r,lowA,Stimuli\red_bar1.png,Stimuli\red_bar1.png,Stimuli\ping.png,downLeft,lowB,midRight,high,downRight,upLeft,upRight,4,z,,,,,0,81,81,88,,,0.6,0.7,exp,z,1,0.6063527000005706,-10.14,0,-7.16,-7.16,10.14,0,7.16,-7.16,-7.16,7.16,7.16,7.16,8,118,281,282,3,SL,2,M,29,R,2025-04-17_11h22.08.681,RewSL_SL_EEG,
ping,high,downRight,DOWN,green,l,lowA,Stimuli\green_bar1.png,Stimuli\green_bar1.png,Stimuli\ping.png,downLeft,lowB,midRight,lowC,midLeft,upLeft,upRight,4,m,,,,,0,82,82,7,,,0.4,0.7,exp,m,1,0.7144193999993149,7.16,-7.16,-7.16,-7.16,10.14,0,-10.14,0,-7.16,7.16,7.16,7.16,8,248,282,283,3,SL,2,M,29,R,2025-04-17_11h22.08.681,RewSL_SL_EEG,
ping,high,downRight,UP,green,l,lowA,Stimuli\green_bar1.png,Stimuli\green_bar1.png,Stimuli\ping.png,downLeft,lowB,midRight,lowC,midLeft,upLeft,upRight,4,z,,,,,0,83,83,45,,,0.6,0.7,exp,m,0,0.6351415000008274,7.16,-7.16,-7.16,-7.16,10.14,0,-10.14,0,-7.16,7.16,7.16,7.16,8,148,283,284,3,SL,2,M,29,R,2025-04-17_11h22.08.681,RewSL_SL_EEG,
ping,high,downRight,DOWN,green,l,lowA,Stimuli\green_bar1.png,Stimuli\green_bar1.png,Stimuli\ping.png,downLeft,lowB,midRight,lowC,midLeft,upLeft,upRight,4,m,,,,,0,84,84,31,,,0.5,0.8,exp,m,1,0.6229910999991262,7.16,-7.16,-7.16,-7.16,10.14,0,-10.14,0,-7.16,7.16,7.16,7.16,8,248,284,285,3,SL,2,M,29,R,2025-04-17_11h22.08.681,RewSL_SL_EEG,
