trial_type,t_frequency,targetPos,Gap,arrayColor,targetOri,f1_frequency,TargetFile,stimuliFile,pingFile,f1_pos,f2_frequency,f2_pos,f3_frequency,f3_pos,f4_pos,f5_pos,Slblock,corrAns,trials_p.thisRepN,trials_p.thisTrialN,trials_p.thisN,trials_p.thisIndex,trials_e.thisRepN,trials_e.thisTrialN,trials_e.thisN,trials_e.thisIndex,thisRow.t,notes,FIX,PINGdur,epoch,key_resp.keys,key_resp.corr,key_resp.rt,targetX,targetY,filler1X,filler1Y,filler2X,filler2Y,filler3X,filler3Y,filler4X,filler4Y,filler5X,filler5Y,pingID,ID,completed_trials,trial_count,participant,learning,session_nr,gender,age,handedness,date,expName,
ping,lowA,midRight,UP,green,l,high,Stimuli\green_bar1.png,Stimuli\green_bar1.png,Stimuli\ping.png,midLeft,lowB,downLeft,lowC,downRight,upLeft,upRight,1,z,0,0,0,5,,,,,,,0.6,0.7,practice,m,0,0.8936336999904597,10.14,0,-10.14,0,-7.16,-7.16,7.16,-7.16,-7.16,7.16,7.16,7.16,2,122,,,6,SL,2,F,29,R,2025-04-18_09h21.51.005,RewSL_SL_EEG,
ping,lowB,downLeft,DOWN,green,l,lowA,Stimuli\green_bar1.png,Stimuli\green_bar1.png,Stimuli\ping.png,midRight,high,midLeft,lowC,downRight,upLeft,upRight,1,m,0,1,1,11,,,,,,,0.6,0.6,practice,z,0,1.2520866999984719,-7.16,-7.16,10.14,0,-10.14,0,7.16,-7.16,-7.16,7.16,7.16,7.16,2,232,,,6,SL,2,F,29,R,2025-04-18_09h21.51.005,RewSL_SL_EEG,
ping,high,midLeft,DOWN,green,r,lowA,Stimuli\green_bar1.png,Stimuli\green_bar1.png,Stimuli\ping.png,midRight,lowB,downLeft,lowC,downRight,upLeft,upRight,1,m,0,2,2,3,,,,,,,0.6,0.8,practice,None,0,,-10.14,0,10.14,0,-7.16,-7.16,7.16,-7.16,-7.16,7.16,7.16,7.16,2,212,,,6,SL,2,F,29,R,2025-04-18_09h21.51.005,RewSL_SL_EEG,
ping,lowC,downRight,UP,green,l,lowA,Stimuli\green_bar1.png,Stimuli\green_bar1.png,Stimuli\ping.png,midRight,lowB,downLeft,high,midLeft,upLeft,upRight,1,z,0,3,3,13,,,,,,,0.5,0.8,practice,z,1,0.9400643999979366,7.16,-7.16,10.14,0,-7.16,-7.16,-10.14,0,-7.16,7.16,7.16,7.16,2,142,,,6,SL,2,F,29,R,2025-04-18_09h21.51.005,RewSL_SL_EEG,
ping,lowB,downLeft,UP,red,l,lowA,Stimuli\red_bar1.png,Stimuli\red_bar1.png,Stimuli\ping.png,midRight,high,midLeft,lowC,downRight,upLeft,upRight,1,z,0,4,4,8,,,,,,,0.5,0.8,practice,z,1,0.9561779000068782,-7.16,-7.16,10.14,0,-10.14,0,7.16,-7.16,-7.16,7.16,7.16,7.16,2,132,,,6,SL,2,F,29,R,2025-04-18_09h21.51.005,RewSL_SL_EEG,
ping,lowA,midRight,UP,red,l,high,Stimuli\red_bar1.png,Stimuli\red_bar1.png,Stimuli\ping.png,midLeft,lowB,downLeft,lowC,downRight,upLeft,upRight,1,z,0,5,5,4,,,,,,,0.5,0.7,practice,z,1,0.6436910999909742,10.14,0,-10.14,0,-7.16,-7.16,7.16,-7.16,-7.16,7.16,7.16,7.16,2,122,,,6,SL,2,F,29,R,2025-04-18_09h21.51.005,RewSL_SL_EEG,
ping,high,midLeft,UP,red,r,lowA,Stimuli\red_bar1.png,Stimuli\red_bar1.png,Stimuli\ping.png,midRight,lowB,downLeft,lowC,downRight,upLeft,upRight,1,z,0,6,6,0,,,,,,,0.5,0.6,practice,z,1,0.6982442999869818,-10.14,0,10.14,0,-7.16,-7.16,7.16,-7.16,-7.16,7.16,7.16,7.16,2,112,,,6,SL,2,F,29,R,2025-04-18_09h21.51.005,RewSL_SL_EEG,
ping,high,midLeft,DOWN,red,r,lowA,Stimuli\red_bar1.png,Stimuli\red_bar1.png,Stimuli\ping.png,midRight,lowB,downLeft,lowC,downRight,upLeft,upRight,1,m,0,7,7,2,,,,,,,0.5,0.7,practice,m,1,0.593329299998004,-10.14,0,10.14,0,-7.16,-7.16,7.16,-7.16,-7.16,7.16,7.16,7.16,2,212,,,6,SL,2,F,29,R,2025-04-18_09h21.51.005,RewSL_SL_EEG,
ping,lowC,downRight,UP,red,l,lowA,Stimuli\red_bar1.png,Stimuli\red_bar1.png,Stimuli\ping.png,midRight,lowB,downLeft,high,midLeft,upLeft,upRight,1,z,0,8,8,12,,,,,,,0.5,0.7,practice,z,1,0.8514605000091251,7.16,-7.16,10.14,0,-7.16,-7.16,-10.14,0,-7.16,7.16,7.16,7.16,2,142,,,6,SL,2,F,29,R,2025-04-18_09h21.51.005,RewSL_SL_EEG,
ping,lowC,downRight,DOWN,red,l,lowA,Stimuli\red_bar1.png,Stimuli\red_bar1.png,Stimuli\ping.png,midRight,lowB,downLeft,high,midLeft,upLeft,upRight,1,m,0,9,9,14,,,,,,,0.5,0.7,practice,None,0,,7.16,-7.16,10.14,0,-7.16,-7.16,-10.14,0,-7.16,7.16,7.16,7.16,2,242,,,6,SL,2,F,29,R,2025-04-18_09h21.51.005,RewSL_SL_EEG,
ping,high,midLeft,UP,green,r,lowA,Stimuli\green_bar1.png,Stimuli\green_bar1.png,Stimuli\ping.png,midRight,lowB,downLeft,lowC,downRight,upLeft,upRight,1,z,0,10,10,1,,,,,,,0.4,0.7,practice,z,1,0.7099534000008134,-10.14,0,10.14,0,-7.16,-7.16,7.16,-7.16,-7.16,7.16,7.16,7.16,2,112,,,6,SL,2,F,29,R,2025-04-18_09h21.51.005,RewSL_SL_EEG,
ping,lowC,downRight,DOWN,green,l,lowA,Stimuli\green_bar1.png,Stimuli\green_bar1.png,Stimuli\ping.png,midRight,lowB,downLeft,high,midLeft,upLeft,upRight,1,m,0,11,11,15,,,,,,,0.6,0.6,practice,m,1,1.0025863999908324,7.16,-7.16,10.14,0,-7.16,-7.16,-10.14,0,-7.16,7.16,7.16,7.16,2,242,,,6,SL,2,F,29,R,2025-04-18_09h21.51.005,RewSL_SL_EEG,
ping,lowB,downLeft,UP,green,l,lowA,Stimuli\green_bar1.png,Stimuli\green_bar1.png,Stimuli\ping.png,midRight,high,midLeft,lowC,downRight,upLeft,upRight,1,z,0,12,12,9,,,,,,,0.5,0.6,practice,z,1,1.043409599995357,-7.16,-7.16,10.14,0,-10.14,0,7.16,-7.16,-7.16,7.16,7.16,7.16,2,132,,,6,SL,2,F,29,R,2025-04-18_09h21.51.005,RewSL_SL_EEG,
ping,lowA,midRight,DOWN,green,l,high,Stimuli\green_bar1.png,Stimuli\green_bar1.png,Stimuli\ping.png,midLeft,lowB,downLeft,lowC,downRight,upLeft,upRight,1,m,0,13,13,7,,,,,,,0.5,0.8,practice,m,1,0.9311047000082908,10.14,0,-10.14,0,-7.16,-7.16,7.16,-7.16,-7.16,7.16,7.16,7.16,2,222,,,6,SL,2,F,29,R,2025-04-18_09h21.51.005,RewSL_SL_EEG,
ping,lowA,midRight,DOWN,red,l,high,Stimuli\red_bar1.png,Stimuli\red_bar1.png,Stimuli\ping.png,midLeft,lowB,downLeft,lowC,downRight,upLeft,upRight,1,m,0,14,14,6,,,,,,,0.5,0.7,practice,m,1,0.780902700003935,10.14,0,-10.14,0,-7.16,-7.16,7.16,-7.16,-7.16,7.16,7.16,7.16,2,222,,,6,SL,2,F,29,R,2025-04-18_09h21.51.005,RewSL_SL_EEG,
ping,lowB,downLeft,DOWN,red,l,lowA,Stimuli\red_bar1.png,Stimuli\red_bar1.png,Stimuli\ping.png,midRight,high,midLeft,lowC,downRight,upLeft,upRight,1,m,0,15,15,10,,,,,,,0.4,0.6,practice,m,1,0.9355822000070475,-7.16,-7.16,10.14,0,-10.14,0,7.16,-7.16,-7.16,7.16,7.16,7.16,2,232,,,6,SL,2,F,29,R,2025-04-18_09h21.51.005,RewSL_SL_EEG,
ping,lowB,downLeft,UP,red,l,lowA,Stimuli\red_bar1.png,Stimuli\red_bar1.png,Stimuli\ping.png,midRight,high,midLeft,lowC,downRight,upLeft,upRight,1,z,,,,,0,0,0,68,,,0.5,0.8,exp,z,1,0.8098591000016313,-7.16,-7.16,10.14,0,-10.14,0,7.16,-7.16,-7.16,7.16,7.16,7.16,2,132,0,1,6,SL,2,F,29,R,2025-04-18_09h21.51.005,RewSL_SL_EEG,
ping,high,midLeft,DOWN,green,r,lowA,Stimuli\green_bar1.png,Stimuli\green_bar1.png,Stimuli\ping.png,midRight,lowB,downLeft,lowC,downRight,upLeft,upRight,1,m,,,,,0,1,1,35,,,0.5,0.8,exp,m,1,1.2444696000020485,-10.14,0,10.14,0,-7.16,-7.16,7.16,-7.16,-7.16,7.16,7.16,7.16,2,212,1,2,6,SL,2,F,29,R,2025-04-18_09h21.51.005,RewSL_SL_EEG,
ping,high,midLeft,DOWN,red,r,lowA,Stimuli\red_bar1.png,Stimuli\red_bar1.png,Stimuli\ping.png,midRight,lowB,downLeft,lowC,downRight,upLeft,upRight,1,m,,,,,0,2,2,34,,,0.5,0.6,exp,m,1,0.6395800000027521,-10.14,0,10.14,0,-7.16,-7.16,7.16,-7.16,-7.16,7.16,7.16,7.16,2,212,2,3,6,SL,2,F,29,R,2025-04-18_09h21.51.005,RewSL_SL_EEG,
ping,lowA,midRight,DOWN,red,l,high,Stimuli\red_bar1.png,Stimuli\red_bar1.png,Stimuli\ping.png,midLeft,lowB,downLeft,lowC,downRight,upLeft,upRight,1,m,,,,,0,3,3,62,,,0.5,0.8,exp,m,1,0.5774000999954296,10.14,0,-10.14,0,-7.16,-7.16,7.16,-7.16,-7.16,7.16,7.16,7.16,2,222,3,4,6,SL,2,F,29,R,2025-04-18_09h21.51.005,RewSL_SL_EEG,
ping,lowC,downRight,DOWN,red,r,lowA,Stimuli\red_bar1.png,Stimuli\red_bar1.png,Stimuli\ping.png,midRight,lowB,downLeft,high,midLeft,upLeft,upRight,1,m,,,,,0,4,4,98,,,0.6,0.6,exp,m,1,0.7729171999963,7.16,-7.16,10.14,0,-7.16,-7.16,-10.14,0,-7.16,7.16,7.16,7.16,2,242,4,5,6,SL,2,F,29,R,2025-04-18_09h21.51.005,RewSL_SL_EEG,
ping,lowB,downLeft,DOWN,green,l,lowA,Stimuli\green_bar1.png,Stimuli\green_bar1.png,Stimuli\ping.png,midRight,high,midLeft,lowC,downRight,upLeft,upRight,1,m,,,,,0,5,5,79,,,0.5,0.6,exp,m,1,0.918908100007684,-7.16,-7.16,10.14,0,-10.14,0,7.16,-7.16,-7.16,7.16,7.16,7.16,2,232,5,6,6,SL,2,F,29,R,2025-04-18_09h21.51.005,RewSL_SL_EEG,
ping,high,midLeft,DOWN,red,l,lowA,Stimuli\red_bar1.png,Stimuli\red_bar1.png,Stimuli\ping.png,midRight,lowB,downLeft,lowC,downRight,upLeft,upRight,1,m,,,,,0,6,6,30,,,0.5,0.7,exp,m,1,0.6140584999957355,-10.14,0,10.14,0,-7.16,-7.16,7.16,-7.16,-7.16,7.16,7.16,7.16,2,212,6,7,6,SL,2,F,29,R,2025-04-18_09h21.51.005,RewSL_SL_EEG,
ping,lowC,downRight,DOWN,red,l,lowA,Stimuli\red_bar1.png,Stimuli\red_bar1.png,Stimuli\ping.png,midRight,lowB,downLeft,high,midLeft,upLeft,upRight,1,m,,,,,0,7,7,94,,,0.4,0.7,exp,z,0,0.8431726999988314,7.16,-7.16,10.14,0,-7.16,-7.16,-10.14,0,-7.16,7.16,7.16,7.16,2,242,7,8,6,SL,2,F,29,R,2025-04-18_09h21.51.005,RewSL_SL_EEG,
ping,lowA,midRight,UP,green,r,high,Stimuli\green_bar1.png,Stimuli\green_bar1.png,Stimuli\ping.png,midLeft,lowB,downLeft,lowC,downRight,upLeft,upRight,1,z,,,,,0,8,8,57,,,0.5,0.8,exp,z,1,0.6684381999948528,10.14,0,-10.14,0,-7.16,-7.16,7.16,-7.16,-7.16,7.16,7.16,7.16,2,122,8,9,6,SL,2,F,29,R,2025-04-18_09h21.51.005,RewSL_SL_EEG,
ping,lowC,downRight,UP,green,l,lowA,Stimuli\green_bar1.png,Stimuli\green_bar1.png,Stimuli\ping.png,midRight,lowB,downLeft,high,midLeft,upLeft,upRight,1,z,,,,,0,9,9,85,,,0.5,0.7,exp,z,1,0.9269963999977335,7.16,-7.16,10.14,0,-7.16,-7.16,-10.14,0,-7.16,7.16,7.16,7.16,2,142,9,10,6,SL,2,F,29,R,2025-04-18_09h21.51.005,RewSL_SL_EEG,
ping,high,midLeft,UP,red,r,lowA,Stimuli\red_bar1.png,Stimuli\red_bar1.png,Stimuli\ping.png,midRight,lowB,downLeft,lowC,downRight,upLeft,upRight,1,z,,,,,0,10,10,32,,,0.5,0.8,exp,z,1,0.5812880000012228,-10.14,0,10.14,0,-7.16,-7.16,7.16,-7.16,-7.16,7.16,7.16,7.16,2,112,10,11,6,SL,2,F,29,R,2025-04-18_09h21.51.005,RewSL_SL_EEG,
ping,high,midLeft,UP,red,r,lowA,Stimuli\red_bar1.png,Stimuli\red_bar1.png,Stimuli\ping.png,midRight,lowB,downLeft,lowC,downRight,upLeft,upRight,1,z,,,,,0,11,11,8,,,0.6,0.6,exp,z,1,0.5562552000046708,-10.14,0,10.14,0,-7.16,-7.16,7.16,-7.16,-7.16,7.16,7.16,7.16,2,112,11,12,6,SL,2,F,29,R,2025-04-18_09h21.51.005,RewSL_SL_EEG,
ping,high,midLeft,DOWN,green,r,lowA,Stimuli\green_bar1.png,Stimuli\green_bar1.png,Stimuli\ping.png,midRight,lowB,downLeft,lowC,downRight,upLeft,upRight,1,m,,,,,0,12,12,43,,,0.5,0.7,exp,m,1,0.7059332999924663,-10.14,0,10.14,0,-7.16,-7.16,7.16,-7.16,-7.16,7.16,7.16,7.16,2,212,12,13,6,SL,2,F,29,R,2025-04-18_09h21.51.005,RewSL_SL_EEG,
ping,high,midLeft,DOWN,red,l,lowA,Stimuli\red_bar1.png,Stimuli\red_bar1.png,Stimuli\ping.png,midRight,lowB,downLeft,lowC,downRight,upLeft,upRight,1,m,,,,,0,13,13,22,,,0.4,0.6,exp,m,1,0.6107097000058275,-10.14,0,10.14,0,-7.16,-7.16,7.16,-7.16,-7.16,7.16,7.16,7.16,2,212,13,14,6,SL,2,F,29,R,2025-04-18_09h21.51.005,RewSL_SL_EEG,
ping,high,midLeft,DOWN,green,l,lowA,Stimuli\green_bar1.png,Stimuli\green_bar1.png,Stimuli\ping.png,midRight,lowB,downLeft,lowC,downRight,upLeft,upRight,1,m,,,,,0,14,14,7,,,0.6,0.7,exp,m,1,0.5307431999972323,-10.14,0,10.14,0,-7.16,-7.16,7.16,-7.16,-7.16,7.16,7.16,7.16,2,212,14,15,6,SL,2,F,29,R,2025-04-18_09h21.51.005,RewSL_SL_EEG,
ping,lowA,midRight,DOWN,red,r,high,Stimuli\red_bar1.png,Stimuli\red_bar1.png,Stimuli\ping.png,midLeft,lowB,downLeft,lowC,downRight,upLeft,upRight,1,m,,,,,0,15,15,66,,,0.6,0.7,exp,m,1,0.656206600004225,10.14,0,-10.14,0,-7.16,-7.16,7.16,-7.16,-7.16,7.16,7.16,7.16,2,222,15,16,6,SL,2,F,29,R,2025-04-18_09h21.51.005,RewSL_SL_EEG,
ping,lowB,downLeft,UP,green,r,lowA,Stimuli\green_bar1.png,Stimuli\green_bar1.png,Stimuli\ping.png,midRight,high,midLeft,lowC,downRight,upLeft,upRight,1,z,,,,,0,16,16,81,,,0.4,0.7,exp,z,1,0.5807889999996405,-7.16,-7.16,10.14,0,-10.14,0,7.16,-7.16,-7.16,7.16,7.16,7.16,2,132,16,17,6,SL,2,F,29,R,2025-04-18_09h21.51.005,RewSL_SL_EEG,
ping,high,midLeft,DOWN,green,l,lowA,Stimuli\green_bar1.png,Stimuli\green_bar1.png,Stimuli\ping.png,midRight,lowB,downLeft,lowC,downRight,upLeft,upRight,1,m,,,,,0,17,17,15,,,0.6,0.8,exp,m,1,0.6728205999970669,-10.14,0,10.14,0,-7.16,-7.16,7.16,-7.16,-7.16,7.16,7.16,7.16,2,212,17,18,6,SL,2,F,29,R,2025-04-18_09h21.51.005,RewSL_SL_EEG,
ping,high,midLeft,DOWN,green,r,lowA,Stimuli\green_bar1.png,Stimuli\green_bar1.png,Stimuli\ping.png,midRight,lowB,downLeft,lowC,downRight,upLeft,upRight,1,m,,,,,0,18,18,19,,,0.6,0.7,exp,m,1,0.7105322999996133,-10.14,0,10.14,0,-7.16,-7.16,7.16,-7.16,-7.16,7.16,7.16,7.16,2,212,18,19,6,SL,2,F,29,R,2025-04-18_09h21.51.005,RewSL_SL_EEG,
ping,high,midLeft,UP,green,r,lowA,Stimuli\green_bar1.png,Stimuli\green_bar1.png,Stimuli\ping.png,midRight,lowB,downLeft,lowC,downRight,upLeft,upRight,1,z,,,,,0,19,19,41,,,0.4,0.6,exp,z,1,0.590297400005511,-10.14,0,10.14,0,-7.16,-7.16,7.16,-7.16,-7.16,7.16,7.16,7.16,2,112,19,20,6,SL,2,F,29,R,2025-04-18_09h21.51.005,RewSL_SL_EEG,
ping,high,midLeft,DOWN,green,r,lowA,Stimuli\green_bar1.png,Stimuli\green_bar1.png,Stimuli\ping.png,midRight,lowB,downLeft,lowC,downRight,upLeft,upRight,1,m,,,,,0,20,20,27,,,0.5,0.6,exp,m,1,0.9859499000012875,-10.14,0,10.14,0,-7.16,-7.16,7.16,-7.16,-7.16,7.16,7.16,7.16,2,212,20,21,6,SL,2,F,29,R,2025-04-18_09h21.51.005,RewSL_SL_EEG,
ping,high,midLeft,DOWN,red,r,lowA,Stimuli\red_bar1.png,Stimuli\red_bar1.png,Stimuli\ping.png,midRight,lowB,downLeft,lowC,downRight,upLeft,upRight,1,m,,,,,0,21,21,26,,,0.5,0.7,exp,m,1,0.5437540999992052,-10.14,0,10.14,0,-7.16,-7.16,7.16,-7.16,-7.16,7.16,7.16,7.16,2,212,21,22,6,SL,2,F,29,R,2025-04-18_09h21.51.005,RewSL_SL_EEG,
ping,lowA,midRight,UP,red,l,high,Stimuli\red_bar1.png,Stimuli\red_bar1.png,Stimuli\ping.png,midLeft,lowB,downLeft,lowC,downRight,upLeft,upRight,1,z,,,,,0,22,22,52,,,0.4,0.7,exp,z,1,0.5229478000110248,10.14,0,-10.14,0,-7.16,-7.16,7.16,-7.16,-7.16,7.16,7.16,7.16,2,122,22,23,6,SL,2,F,29,R,2025-04-18_09h21.51.005,RewSL_SL_EEG,
ping,lowA,midRight,UP,red,r,high,Stimuli\red_bar1.png,Stimuli\red_bar1.png,Stimuli\ping.png,midLeft,lowB,downLeft,lowC,downRight,upLeft,upRight,1,z,,,,,0,23,23,56,,,0.6,0.7,exp,z,1,0.6645725999987917,10.14,0,-10.14,0,-7.16,-7.16,7.16,-7.16,-7.16,7.16,7.16,7.16,2,122,23,24,6,SL,2,F,29,R,2025-04-18_09h21.51.005,RewSL_SL_EEG,
ping,lowA,midRight,UP,red,r,high,Stimuli\red_bar1.png,Stimuli\red_bar1.png,Stimuli\ping.png,midLeft,lowB,downLeft,lowC,downRight,upLeft,upRight,1,z,,,,,0,24,24,64,,,0.5,0.6,exp,z,1,0.6989237000088906,10.14,0,-10.14,0,-7.16,-7.16,7.16,-7.16,-7.16,7.16,7.16,7.16,2,122,24,25,6,SL,2,F,29,R,2025-04-18_09h21.51.005,RewSL_SL_EEG,
ping,high,midLeft,UP,red,r,lowA,Stimuli\red_bar1.png,Stimuli\red_bar1.png,Stimuli\ping.png,midRight,lowB,downLeft,lowC,downRight,upLeft,upRight,1,z,,,,,0,25,25,40,,,0.6,0.7,exp,z,1,0.7018734999874141,-10.14,0,10.14,0,-7.16,-7.16,7.16,-7.16,-7.16,7.16,7.16,7.16,2,112,25,26,6,SL,2,F,29,R,2025-04-18_09h21.51.005,RewSL_SL_EEG,
ping,lowA,midRight,DOWN,green,l,high,Stimuli\green_bar1.png,Stimuli\green_bar1.png,Stimuli\ping.png,midLeft,lowB,downLeft,lowC,downRight,upLeft,upRight,1,m,,,,,0,26,26,63,,,0.6,0.6,exp,m,1,0.6388940999895567,10.14,0,-10.14,0,-7.16,-7.16,7.16,-7.16,-7.16,7.16,7.16,7.16,2,222,26,27,6,SL,2,F,29,R,2025-04-18_09h21.51.005,RewSL_SL_EEG,
ping,high,midLeft,DOWN,red,r,lowA,Stimuli\red_bar1.png,Stimuli\red_bar1.png,Stimuli\ping.png,midRight,lowB,downLeft,lowC,downRight,upLeft,upRight,1,m,,,,,0,27,27,18,,,0.6,0.8,exp,m,1,0.6226642999972682,-10.14,0,10.14,0,-7.16,-7.16,7.16,-7.16,-7.16,7.16,7.16,7.16,2,212,27,28,6,SL,2,F,29,R,2025-04-18_09h21.51.005,RewSL_SL_EEG,
ping,lowC,downRight,DOWN,green,r,lowA,Stimuli\green_bar1.png,Stimuli\green_bar1.png,Stimuli\ping.png,midRight,lowB,downLeft,high,midLeft,upLeft,upRight,1,m,,,,,0,28,28,91,,,0.5,0.7,exp,m,1,0.8686799999995856,7.16,-7.16,10.14,0,-7.16,-7.16,-10.14,0,-7.16,7.16,7.16,7.16,2,242,28,29,6,SL,2,F,29,R,2025-04-18_09h21.51.005,RewSL_SL_EEG,
ping,lowB,downLeft,UP,green,l,lowA,Stimuli\green_bar1.png,Stimuli\green_bar1.png,Stimuli\ping.png,midRight,high,midLeft,lowC,downRight,upLeft,upRight,1,z,,,,,0,29,29,69,,,0.4,0.7,exp,z,1,0.7980126000038581,-7.16,-7.16,10.14,0,-10.14,0,7.16,-7.16,-7.16,7.16,7.16,7.16,2,132,29,30,6,SL,2,F,29,R,2025-04-18_09h21.51.005,RewSL_SL_EEG,
ping,high,midLeft,UP,red,l,lowA,Stimuli\red_bar1.png,Stimuli\red_bar1.png,Stimuli\ping.png,midRight,lowB,downLeft,lowC,downRight,upLeft,upRight,1,z,,,,,0,30,30,4,,,0.5,0.6,exp,z,1,0.6112112999981036,-10.14,0,10.14,0,-7.16,-7.16,7.16,-7.16,-7.16,7.16,7.16,7.16,2,112,30,31,6,SL,2,F,29,R,2025-04-18_09h21.51.005,RewSL_SL_EEG,
ping,lowC,downRight,DOWN,red,r,lowA,Stimuli\red_bar1.png,Stimuli\red_bar1.png,Stimuli\ping.png,midRight,lowB,downLeft,high,midLeft,upLeft,upRight,1,m,,,,,0,31,31,90,,,0.5,0.6,exp,m,1,0.5726808000035817,7.16,-7.16,10.14,0,-7.16,-7.16,-10.14,0,-7.16,7.16,7.16,7.16,2,242,31,32,6,SL,2,F,29,R,2025-04-18_09h21.51.005,RewSL_SL_EEG,
ping,lowA,midRight,UP,green,l,high,Stimuli\green_bar1.png,Stimuli\green_bar1.png,Stimuli\ping.png,midLeft,lowB,downLeft,lowC,downRight,upLeft,upRight,1,z,,,,,0,32,32,61,,,0.4,0.7,exp,m,0,0.8561773999972502,10.14,0,-10.14,0,-7.16,-7.16,7.16,-7.16,-7.16,7.16,7.16,7.16,2,122,32,33,6,SL,2,F,29,R,2025-04-18_09h21.51.005,RewSL_SL_EEG,
ping,lowC,downRight,UP,red,r,lowA,Stimuli\red_bar1.png,Stimuli\red_bar1.png,Stimuli\ping.png,midRight,lowB,downLeft,high,midLeft,upLeft,upRight,1,z,,,,,0,33,33,88,,,0.6,0.8,exp,z,1,0.8525882000103593,7.16,-7.16,10.14,0,-7.16,-7.16,-10.14,0,-7.16,7.16,7.16,7.16,2,142,33,34,6,SL,2,F,29,R,2025-04-18_09h21.51.005,RewSL_SL_EEG,
ping,lowA,midRight,DOWN,red,l,high,Stimuli\red_bar1.png,Stimuli\red_bar1.png,Stimuli\ping.png,midLeft,lowB,downLeft,lowC,downRight,upLeft,upRight,1,m,,,,,0,34,34,54,,,0.4,0.8,exp,m,1,0.6183368999918457,10.14,0,-10.14,0,-7.16,-7.16,7.16,-7.16,-7.16,7.16,7.16,7.16,2,222,34,35,6,SL,2,F,29,R,2025-04-18_09h21.51.005,RewSL_SL_EEG,
ping,high,midLeft,UP,red,r,lowA,Stimuli\red_bar1.png,Stimuli\red_bar1.png,Stimuli\ping.png,midRight,lowB,downLeft,lowC,downRight,upLeft,upRight,1,z,,,,,0,35,35,48,,,0.5,0.7,exp,z,1,0.5888886000029743,-10.14,0,10.14,0,-7.16,-7.16,7.16,-7.16,-7.16,7.16,7.16,7.16,2,112,35,36,6,SL,2,F,29,R,2025-04-18_09h21.51.005,RewSL_SL_EEG,
ping,high,midLeft,UP,green,r,lowA,Stimuli\green_bar1.png,Stimuli\green_bar1.png,Stimuli\ping.png,midRight,lowB,downLeft,lowC,downRight,upLeft,upRight,1,z,,,,,0,36,36,17,,,0.5,0.8,exp,z,1,0.5898259000096004,-10.14,0,10.14,0,-7.16,-7.16,7.16,-7.16,-7.16,7.16,7.16,7.16,2,112,36,37,6,SL,2,F,29,R,2025-04-18_09h21.51.005,RewSL_SL_EEG,
ping,high,midLeft,DOWN,red,l,lowA,Stimuli\red_bar1.png,Stimuli\red_bar1.png,Stimuli\ping.png,midRight,lowB,downLeft,lowC,downRight,upLeft,upRight,1,m,,,,,0,37,37,46,,,0.5,0.6,exp,m,1,0.564692300002207,-10.14,0,10.14,0,-7.16,-7.16,7.16,-7.16,-7.16,7.16,7.16,7.16,2,212,37,38,6,SL,2,F,29,R,2025-04-18_09h21.51.005,RewSL_SL_EEG,
ping,lowA,midRight,UP,green,r,high,Stimuli\green_bar1.png,Stimuli\green_bar1.png,Stimuli\ping.png,midLeft,lowB,downLeft,lowC,downRight,upLeft,upRight,1,z,,,,,0,38,38,65,,,0.5,0.8,exp,m,0,0.7773660999955609,10.14,0,-10.14,0,-7.16,-7.16,7.16,-7.16,-7.16,7.16,7.16,7.16,2,122,38,39,6,SL,2,F,29,R,2025-04-18_09h21.51.005,RewSL_SL_EEG,
ping,lowA,midRight,DOWN,red,r,high,Stimuli\red_bar1.png,Stimuli\red_bar1.png,Stimuli\ping.png,midLeft,lowB,downLeft,lowC,downRight,upLeft,upRight,1,m,,,,,0,39,39,58,,,0.5,0.7,exp,m,1,0.5768463999993401,10.14,0,-10.14,0,-7.16,-7.16,7.16,-7.16,-7.16,7.16,7.16,7.16,2,222,39,40,6,SL,2,F,29,R,2025-04-18_09h21.51.005,RewSL_SL_EEG,
ping,lowB,downLeft,DOWN,red,r,lowA,Stimuli\red_bar1.png,Stimuli\red_bar1.png,Stimuli\ping.png,midRight,high,midLeft,lowC,downRight,upLeft,upRight,1,m,,,,,0,40,40,74,,,0.5,0.7,exp,m,1,0.7565410000097472,-7.16,-7.16,10.14,0,-10.14,0,7.16,-7.16,-7.16,7.16,7.16,7.16,2,232,40,41,6,SL,2,F,29,R,2025-04-18_09h21.51.005,RewSL_SL_EEG,
ping,high,midLeft,UP,green,r,lowA,Stimuli\green_bar1.png,Stimuli\green_bar1.png,Stimuli\ping.png,midRight,lowB,downLeft,lowC,downRight,upLeft,upRight,1,z,,,,,0,41,41,49,,,0.6,0.6,exp,z,1,0.5017953000060515,-10.14,0,10.14,0,-7.16,-7.16,7.16,-7.16,-7.16,7.16,7.16,7.16,2,112,41,42,6,SL,2,F,29,R,2025-04-18_09h21.51.005,RewSL_SL_EEG,
ping,lowC,downRight,UP,red,r,lowA,Stimuli\red_bar1.png,Stimuli\red_bar1.png,Stimuli\ping.png,midRight,lowB,downLeft,high,midLeft,upLeft,upRight,1,z,,,,,0,42,42,96,,,0.5,0.6,exp,m,0,0.8145351999992272,7.16,-7.16,10.14,0,-7.16,-7.16,-10.14,0,-7.16,7.16,7.16,7.16,2,142,42,43,6,SL,2,F,29,R,2025-04-18_09h21.51.005,RewSL_SL_EEG,
ping,lowC,downRight,UP,green,r,lowA,Stimuli\green_bar1.png,Stimuli\green_bar1.png,Stimuli\ping.png,midRight,lowB,downLeft,high,midLeft,upLeft,upRight,1,z,,,,,0,43,43,89,,,0.6,0.7,exp,z,1,0.8983340999984648,7.16,-7.16,10.14,0,-7.16,-7.16,-10.14,0,-7.16,7.16,7.16,7.16,2,142,43,44,6,SL,2,F,29,R,2025-04-18_09h21.51.005,RewSL_SL_EEG,
ping,high,midLeft,UP,green,r,lowA,Stimuli\green_bar1.png,Stimuli\green_bar1.png,Stimuli\ping.png,midRight,lowB,downLeft,lowC,downRight,upLeft,upRight,1,z,,,,,0,44,44,9,,,0.5,0.7,exp,z,1,0.7734702000016114,-10.14,0,10.14,0,-7.16,-7.16,7.16,-7.16,-7.16,7.16,7.16,7.16,2,112,44,45,6,SL,2,F,29,R,2025-04-18_09h21.51.005,RewSL_SL_EEG,
ping,high,midLeft,UP,green,l,lowA,Stimuli\green_bar1.png,Stimuli\green_bar1.png,Stimuli\ping.png,midRight,lowB,downLeft,lowC,downRight,upLeft,upRight,1,z,,,,,0,45,45,13,,,0.6,0.8,exp,z,1,0.6862619999883464,-10.14,0,10.14,0,-7.16,-7.16,7.16,-7.16,-7.16,7.16,7.16,7.16,2,112,45,46,6,SL,2,F,29,R,2025-04-18_09h21.51.005,RewSL_SL_EEG,
ping,high,midLeft,UP,red,l,lowA,Stimuli\red_bar1.png,Stimuli\red_bar1.png,Stimuli\ping.png,midRight,lowB,downLeft,lowC,downRight,upLeft,upRight,1,z,,,,,0,46,46,20,,,0.4,0.8,exp,z,1,0.5805085000029067,-10.14,0,10.14,0,-7.16,-7.16,7.16,-7.16,-7.16,7.16,7.16,7.16,2,112,46,47,6,SL,2,F,29,R,2025-04-18_09h21.51.005,RewSL_SL_EEG,
ping,high,midLeft,UP,red,r,lowA,Stimuli\red_bar1.png,Stimuli\red_bar1.png,Stimuli\ping.png,midRight,lowB,downLeft,lowC,downRight,upLeft,upRight,1,z,,,,,0,47,47,24,,,0.5,0.7,exp,z,1,0.5184786000027088,-10.14,0,10.14,0,-7.16,-7.16,7.16,-7.16,-7.16,7.16,7.16,7.16,2,112,47,48,6,SL,2,F,29,R,2025-04-18_09h21.51.005,RewSL_SL_EEG,
ping,high,midLeft,UP,green,l,lowA,Stimuli\green_bar1.png,Stimuli\green_bar1.png,Stimuli\ping.png,midRight,lowB,downLeft,lowC,downRight,upLeft,upRight,1,z,,,,,0,48,48,29,,,0.5,0.8,exp,z,1,1.2731020000064746,-10.14,0,10.14,0,-7.16,-7.16,7.16,-7.16,-7.16,7.16,7.16,7.16,2,112,48,49,6,SL,2,F,29,R,2025-04-18_09h21.51.005,RewSL_SL_EEG,
ping,high,midLeft,UP,green,l,lowA,Stimuli\green_bar1.png,Stimuli\green_bar1.png,Stimuli\ping.png,midRight,lowB,downLeft,lowC,downRight,upLeft,upRight,1,z,,,,,0,49,49,5,,,0.6,0.7,exp,z,1,0.7484360999951605,-10.14,0,10.14,0,-7.16,-7.16,7.16,-7.16,-7.16,7.16,7.16,7.16,2,112,49,50,6,SL,2,F,29,R,2025-04-18_09h21.51.005,RewSL_SL_EEG,
ping,lowC,downRight,DOWN,green,r,lowA,Stimuli\green_bar1.png,Stimuli\green_bar1.png,Stimuli\ping.png,midRight,lowB,downLeft,high,midLeft,upLeft,upRight,1,m,,,,,0,50,50,99,,,0.6,0.6,exp,m,1,0.7155991999898106,7.16,-7.16,10.14,0,-7.16,-7.16,-10.14,0,-7.16,7.16,7.16,7.16,2,242,50,51,6,SL,2,F,29,R,2025-04-18_09h21.51.005,RewSL_SL_EEG,
ping,high,midLeft,DOWN,green,r,lowA,Stimuli\green_bar1.png,Stimuli\green_bar1.png,Stimuli\ping.png,midRight,lowB,downLeft,lowC,downRight,upLeft,upRight,1,m,,,,,0,51,51,51,,,0.6,0.8,exp,m,1,0.613925300000119,-10.14,0,10.14,0,-7.16,-7.16,7.16,-7.16,-7.16,7.16,7.16,7.16,2,212,51,52,6,SL,2,F,29,R,2025-04-18_09h21.51.005,RewSL_SL_EEG,
ping,high,midLeft,DOWN,red,l,lowA,Stimuli\red_bar1.png,Stimuli\red_bar1.png,Stimuli\ping.png,midRight,lowB,downLeft,lowC,downRight,upLeft,upRight,1,m,,,,,0,52,52,14,,,0.5,0.6,exp,m,1,0.5061750000022585,-10.14,0,10.14,0,-7.16,-7.16,7.16,-7.16,-7.16,7.16,7.16,7.16,2,212,52,53,6,SL,2,F,29,R,2025-04-18_09h21.51.005,RewSL_SL_EEG,
ping,lowA,midRight,UP,red,l,high,Stimuli\red_bar1.png,Stimuli\red_bar1.png,Stimuli\ping.png,midLeft,lowB,downLeft,lowC,downRight,upLeft,upRight,1,z,,,,,0,53,53,60,,,0.4,0.7,exp,z,1,0.6900885000068229,10.14,0,-10.14,0,-7.16,-7.16,7.16,-7.16,-7.16,7.16,7.16,7.16,2,122,53,54,6,SL,2,F,29,R,2025-04-18_09h21.51.005,RewSL_SL_EEG,
ping,high,midLeft,UP,red,l,lowA,Stimuli\red_bar1.png,Stimuli\red_bar1.png,Stimuli\ping.png,midRight,lowB,downLeft,lowC,downRight,upLeft,upRight,1,z,,,,,0,54,54,44,,,0.6,0.7,exp,z,1,1.1062160000001313,-10.14,0,10.14,0,-7.16,-7.16,7.16,-7.16,-7.16,7.16,7.16,7.16,2,112,54,55,6,SL,2,F,29,R,2025-04-18_09h21.51.005,RewSL_SL_EEG,
ping,lowB,downLeft,DOWN,red,l,lowA,Stimuli\red_bar1.png,Stimuli\red_bar1.png,Stimuli\ping.png,midRight,high,midLeft,lowC,downRight,upLeft,upRight,1,m,,,,,0,55,55,78,,,0.6,0.7,exp,m,1,0.7902195000060601,-7.16,-7.16,10.14,0,-10.14,0,7.16,-7.16,-7.16,7.16,7.16,7.16,2,232,55,56,6,SL,2,F,29,R,2025-04-18_09h21.51.005,RewSL_SL_EEG,
ping,high,midLeft,DOWN,red,r,lowA,Stimuli\red_bar1.png,Stimuli\red_bar1.png,Stimuli\ping.png,midRight,lowB,downLeft,lowC,downRight,upLeft,upRight,1,m,,,,,0,56,56,42,,,0.4,0.7,exp,m,1,0.6349884000082966,-10.14,0,10.14,0,-7.16,-7.16,7.16,-7.16,-7.16,7.16,7.16,7.16,2,212,56,57,6,SL,2,F,29,R,2025-04-18_09h21.51.005,RewSL_SL_EEG,
ping,high,midLeft,UP,red,r,lowA,Stimuli\red_bar1.png,Stimuli\red_bar1.png,Stimuli\ping.png,midRight,lowB,downLeft,lowC,downRight,upLeft,upRight,1,z,,,,,0,57,57,0,,,0.6,0.8,exp,z,1,0.7437370999978157,-10.14,0,10.14,0,-7.16,-7.16,7.16,-7.16,-7.16,7.16,7.16,7.16,2,112,57,58,6,SL,2,F,29,R,2025-04-18_09h21.51.005,RewSL_SL_EEG,
ping,high,midLeft,UP,green,r,lowA,Stimuli\green_bar1.png,Stimuli\green_bar1.png,Stimuli\ping.png,midRight,lowB,downLeft,lowC,downRight,upLeft,upRight,1,z,,,,,0,58,58,33,,,0.5,0.7,exp,z,1,0.5060025000129826,-10.14,0,10.14,0,-7.16,-7.16,7.16,-7.16,-7.16,7.16,7.16,7.16,2,112,58,59,6,SL,2,F,29,R,2025-04-18_09h21.51.005,RewSL_SL_EEG,
ping,high,midLeft,UP,red,l,lowA,Stimuli\red_bar1.png,Stimuli\red_bar1.png,Stimuli\ping.png,midRight,lowB,downLeft,lowC,downRight,upLeft,upRight,1,z,,,,,0,59,59,28,,,0.5,0.7,exp,z,1,0.6809571999910986,-10.14,0,10.14,0,-7.16,-7.16,7.16,-7.16,-7.16,7.16,7.16,7.16,2,112,59,60,6,SL,2,F,29,R,2025-04-18_09h21.51.005,RewSL_SL_EEG,
ping,lowA,midRight,DOWN,green,r,high,Stimuli\green_bar1.png,Stimuli\green_bar1.png,Stimuli\ping.png,midLeft,lowB,downLeft,lowC,downRight,upLeft,upRight,1,m,,,,,0,60,60,67,,,0.4,0.6,exp,m,1,0.7895884999888949,10.14,0,-10.14,0,-7.16,-7.16,7.16,-7.16,-7.16,7.16,7.16,7.16,2,222,60,61,6,SL,2,F,29,R,2025-04-18_09h21.51.005,RewSL_SL_EEG,
ping,lowB,downLeft,DOWN,green,l,lowA,Stimuli\green_bar1.png,Stimuli\green_bar1.png,Stimuli\ping.png,midRight,high,midLeft,lowC,downRight,upLeft,upRight,1,m,,,,,0,61,61,71,,,0.5,0.7,exp,m,1,0.6812322999903699,-7.16,-7.16,10.14,0,-10.14,0,7.16,-7.16,-7.16,7.16,7.16,7.16,2,232,61,62,6,SL,2,F,29,R,2025-04-18_09h21.51.005,RewSL_SL_EEG,
ping,high,midLeft,DOWN,green,l,lowA,Stimuli\green_bar1.png,Stimuli\green_bar1.png,Stimuli\ping.png,midRight,lowB,downLeft,lowC,downRight,upLeft,upRight,1,m,,,,,0,62,62,23,,,0.4,0.6,exp,m,1,0.6059879000094952,-10.14,0,10.14,0,-7.16,-7.16,7.16,-7.16,-7.16,7.16,7.16,7.16,2,212,62,63,6,SL,2,F,29,R,2025-04-18_09h21.51.005,RewSL_SL_EEG,
ping,lowC,downRight,UP,green,r,lowA,Stimuli\green_bar1.png,Stimuli\green_bar1.png,Stimuli\ping.png,midRight,lowB,downLeft,high,midLeft,upLeft,upRight,1,z,,,,,0,63,63,97,,,0.6,0.8,exp,z,1,0.7269115000090096,7.16,-7.16,10.14,0,-7.16,-7.16,-10.14,0,-7.16,7.16,7.16,7.16,2,142,63,64,6,SL,2,F,29,R,2025-04-18_09h21.51.005,RewSL_SL_EEG,
ping,high,midLeft,DOWN,green,l,lowA,Stimuli\green_bar1.png,Stimuli\green_bar1.png,Stimuli\ping.png,midRight,lowB,downLeft,lowC,downRight,upLeft,upRight,1,m,,,,,0,64,64,39,,,0.5,0.8,exp,m,1,0.588971599994693,-10.14,0,10.14,0,-7.16,-7.16,7.16,-7.16,-7.16,7.16,7.16,7.16,2,212,64,65,6,SL,2,F,29,R,2025-04-18_09h21.51.005,RewSL_SL_EEG,
ping,lowB,downLeft,UP,green,l,lowA,Stimuli\green_bar1.png,Stimuli\green_bar1.png,Stimuli\ping.png,midRight,high,midLeft,lowC,downRight,upLeft,upRight,1,z,,,,,0,65,65,77,,,0.5,0.6,exp,m,0,0.6945009000046412,-7.16,-7.16,10.14,0,-10.14,0,7.16,-7.16,-7.16,7.16,7.16,7.16,2,132,65,66,6,SL,2,F,29,R,2025-04-18_09h21.51.005,RewSL_SL_EEG,
ping,high,midLeft,DOWN,green,r,lowA,Stimuli\green_bar1.png,Stimuli\green_bar1.png,Stimuli\ping.png,midRight,lowB,downLeft,lowC,downRight,upLeft,upRight,1,m,,,,,0,66,66,3,,,0.4,0.8,exp,m,1,0.6773654999997234,-10.14,0,10.14,0,-7.16,-7.16,7.16,-7.16,-7.16,7.16,7.16,7.16,2,212,66,67,6,SL,2,F,29,R,2025-04-18_09h21.51.005,RewSL_SL_EEG,
ping,high,midLeft,DOWN,green,l,lowA,Stimuli\green_bar1.png,Stimuli\green_bar1.png,Stimuli\ping.png,midRight,lowB,downLeft,lowC,downRight,upLeft,upRight,1,m,,,,,0,67,67,47,,,0.5,0.7,exp,m,1,0.4935754000034649,-10.14,0,10.14,0,-7.16,-7.16,7.16,-7.16,-7.16,7.16,7.16,7.16,2,212,67,68,6,SL,2,F,29,R,2025-04-18_09h21.51.005,RewSL_SL_EEG,
ping,lowB,downLeft,UP,red,l,lowA,Stimuli\red_bar1.png,Stimuli\red_bar1.png,Stimuli\ping.png,midRight,high,midLeft,lowC,downRight,upLeft,upRight,1,z,,,,,0,68,68,76,,,0.6,0.8,exp,z,1,0.8283555000089109,-7.16,-7.16,10.14,0,-10.14,0,7.16,-7.16,-7.16,7.16,7.16,7.16,2,132,68,69,6,SL,2,F,29,R,2025-04-18_09h21.51.005,RewSL_SL_EEG,
ping,high,midLeft,UP,red,r,lowA,Stimuli\red_bar1.png,Stimuli\red_bar1.png,Stimuli\ping.png,midRight,lowB,downLeft,lowC,downRight,upLeft,upRight,1,z,,,,,0,69,69,16,,,0.5,0.8,exp,z,1,0.6226329999917652,-10.14,0,10.14,0,-7.16,-7.16,7.16,-7.16,-7.16,7.16,7.16,7.16,2,112,69,70,6,SL,2,F,29,R,2025-04-18_09h21.51.005,RewSL_SL_EEG,
ping,lowB,downLeft,DOWN,red,r,lowA,Stimuli\red_bar1.png,Stimuli\red_bar1.png,Stimuli\ping.png,midRight,high,midLeft,lowC,downRight,upLeft,upRight,1,m,,,,,0,70,70,82,,,0.5,0.7,exp,m,1,0.7059385000029579,-7.16,-7.16,10.14,0,-10.14,0,7.16,-7.16,-7.16,7.16,7.16,7.16,2,232,70,71,6,SL,2,F,29,R,2025-04-18_09h21.51.005,RewSL_SL_EEG,
ping,high,midLeft,DOWN,red,r,lowA,Stimuli\red_bar1.png,Stimuli\red_bar1.png,Stimuli\ping.png,midRight,lowB,downLeft,lowC,downRight,upLeft,upRight,1,m,,,,,0,71,71,10,,,0.6,0.8,exp,m,1,0.5597829000034835,-10.14,0,10.14,0,-7.16,-7.16,7.16,-7.16,-7.16,7.16,7.16,7.16,2,212,71,72,6,SL,2,F,29,R,2025-04-18_09h21.51.005,RewSL_SL_EEG,
ping,lowC,downRight,DOWN,green,l,lowA,Stimuli\green_bar1.png,Stimuli\green_bar1.png,Stimuli\ping.png,midRight,lowB,downLeft,high,midLeft,upLeft,upRight,1,m,,,,,0,72,72,95,,,0.6,0.7,exp,z,0,0.7806210999988252,7.16,-7.16,10.14,0,-7.16,-7.16,-10.14,0,-7.16,7.16,7.16,7.16,2,242,72,73,6,SL,2,F,29,R,2025-04-18_09h21.51.005,RewSL_SL_EEG,
ping,lowA,midRight,DOWN,green,l,high,Stimuli\green_bar1.png,Stimuli\green_bar1.png,Stimuli\ping.png,midLeft,lowB,downLeft,lowC,downRight,upLeft,upRight,1,m,,,,,0,73,73,55,,,0.6,0.6,exp,m,1,0.5265744000062114,10.14,0,-10.14,0,-7.16,-7.16,7.16,-7.16,-7.16,7.16,7.16,7.16,2,222,73,74,6,SL,2,F,29,R,2025-04-18_09h21.51.005,RewSL_SL_EEG,
ping,lowB,downLeft,UP,red,r,lowA,Stimuli\red_bar1.png,Stimuli\red_bar1.png,Stimuli\ping.png,midRight,high,midLeft,lowC,downRight,upLeft,upRight,1,z,,,,,0,74,74,72,,,0.5,0.6,exp,z,1,0.7562131999875419,-7.16,-7.16,10.14,0,-10.14,0,7.16,-7.16,-7.16,7.16,7.16,7.16,2,132,74,75,6,SL,2,F,29,R,2025-04-18_09h21.51.005,RewSL_SL_EEG,
ping,lowC,downRight,UP,red,l,lowA,Stimuli\red_bar1.png,Stimuli\red_bar1.png,Stimuli\ping.png,midRight,lowB,downLeft,high,midLeft,upLeft,upRight,1,z,,,,,0,75,75,84,,,0.5,0.8,exp,z,1,0.7901734000042779,7.16,-7.16,10.14,0,-7.16,-7.16,-10.14,0,-7.16,7.16,7.16,7.16,2,142,75,76,6,SL,2,F,29,R,2025-04-18_09h21.51.005,RewSL_SL_EEG,
ping,lowB,downLeft,UP,green,r,lowA,Stimuli\green_bar1.png,Stimuli\green_bar1.png,Stimuli\ping.png,midRight,high,midLeft,lowC,downRight,upLeft,upRight,1,z,,,,,0,76,76,73,,,0.6,0.7,exp,z,1,0.7095562999893446,-7.16,-7.16,10.14,0,-10.14,0,7.16,-7.16,-7.16,7.16,7.16,7.16,2,132,76,77,6,SL,2,F,29,R,2025-04-18_09h21.51.005,RewSL_SL_EEG,
ping,lowB,downLeft,DOWN,green,r,lowA,Stimuli\green_bar1.png,Stimuli\green_bar1.png,Stimuli\ping.png,midRight,high,midLeft,lowC,downRight,upLeft,upRight,1,m,,,,,0,77,77,75,,,0.5,0.6,exp,m,1,0.7859065000084229,-7.16,-7.16,10.14,0,-10.14,0,7.16,-7.16,-7.16,7.16,7.16,7.16,2,232,77,78,6,SL,2,F,29,R,2025-04-18_09h21.51.005,RewSL_SL_EEG,
ping,high,midLeft,UP,red,l,lowA,Stimuli\red_bar1.png,Stimuli\red_bar1.png,Stimuli\ping.png,midRight,lowB,downLeft,lowC,downRight,upLeft,upRight,1,z,,,,,0,78,78,12,,,0.5,0.6,exp,z,1,0.5817634999984875,-10.14,0,10.14,0,-7.16,-7.16,7.16,-7.16,-7.16,7.16,7.16,7.16,2,112,78,79,6,SL,2,F,29,R,2025-04-18_09h21.51.005,RewSL_SL_EEG,
ping,lowC,downRight,DOWN,green,l,lowA,Stimuli\green_bar1.png,Stimuli\green_bar1.png,Stimuli\ping.png,midRight,lowB,downLeft,high,midLeft,upLeft,upRight,1,m,,,,,0,79,79,87,,,0.5,0.7,exp,None,0,,7.16,-7.16,10.14,0,-7.16,-7.16,-10.14,0,-7.16,7.16,7.16,7.16,2,242,79,80,6,SL,2,F,29,R,2025-04-18_09h21.51.005,RewSL_SL_EEG,
ping,high,midLeft,UP,green,l,lowA,Stimuli\green_bar1.png,Stimuli\green_bar1.png,Stimuli\ping.png,midRight,lowB,downLeft,lowC,downRight,upLeft,upRight,1,z,,,,,0,80,80,21,,,0.5,0.7,exp,z,1,0.7313742999976967,-10.14,0,10.14,0,-7.16,-7.16,7.16,-7.16,-7.16,7.16,7.16,7.16,2,112,80,81,6,SL,2,F,29,R,2025-04-18_09h21.51.005,RewSL_SL_EEG,
ping,high,midLeft,DOWN,red,l,lowA,Stimuli\red_bar1.png,Stimuli\red_bar1.png,Stimuli\ping.png,midRight,lowB,downLeft,lowC,downRight,upLeft,upRight,1,m,,,,,0,81,81,38,,,0.4,0.6,exp,m,1,0.8226639999920735,-10.14,0,10.14,0,-7.16,-7.16,7.16,-7.16,-7.16,7.16,7.16,7.16,2,212,81,82,6,SL,2,F,29,R,2025-04-18_09h21.51.005,RewSL_SL_EEG,
ping,lowA,midRight,DOWN,green,r,high,Stimuli\green_bar1.png,Stimuli\green_bar1.png,Stimuli\ping.png,midLeft,lowB,downLeft,lowC,downRight,upLeft,upRight,1,m,,,,,0,82,82,59,,,0.5,0.8,exp,m,1,0.6759510999982012,10.14,0,-10.14,0,-7.16,-7.16,7.16,-7.16,-7.16,7.16,7.16,7.16,2,222,82,83,6,SL,2,F,29,R,2025-04-18_09h21.51.005,RewSL_SL_EEG,
ping,high,midLeft,DOWN,green,l,lowA,Stimuli\green_bar1.png,Stimuli\green_bar1.png,Stimuli\ping.png,midRight,lowB,downLeft,lowC,downRight,upLeft,upRight,1,m,,,,,0,83,83,31,,,0.5,0.7,exp,m,1,0.8318989999970654,-10.14,0,10.14,0,-7.16,-7.16,7.16,-7.16,-7.16,7.16,7.16,7.16,2,212,83,84,6,SL,2,F,29,R,2025-04-18_09h21.51.005,RewSL_SL_EEG,
ping,lowC,downRight,UP,red,l,lowA,Stimuli\red_bar1.png,Stimuli\red_bar1.png,Stimuli\ping.png,midRight,lowB,downLeft,high,midLeft,upLeft,upRight,1,z,,,,,0,84,84,92,,,0.4,0.7,exp,z,1,0.6777898000000278,7.16,-7.16,10.14,0,-7.16,-7.16,-10.14,0,-7.16,7.16,7.16,7.16,2,142,84,85,6,SL,2,F,29,R,2025-04-18_09h21.51.005,RewSL_SL_EEG,
ping,high,midLeft,UP,red,l,lowA,Stimuli\red_bar1.png,Stimuli\red_bar1.png,Stimuli\ping.png,midRight,lowB,downLeft,lowC,downRight,upLeft,upRight,1,z,,,,,0,85,85,36,,,0.5,0.7,exp,z,1,0.6520724000001792,-10.14,0,10.14,0,-7.16,-7.16,7.16,-7.16,-7.16,7.16,7.16,7.16,2,112,85,86,6,SL,2,F,29,R,2025-04-18_09h21.51.005,RewSL_SL_EEG,
ping,lowB,downLeft,DOWN,green,r,lowA,Stimuli\green_bar1.png,Stimuli\green_bar1.png,Stimuli\ping.png,midRight,high,midLeft,lowC,downRight,upLeft,upRight,1,m,,,,,0,86,86,83,,,0.4,0.8,exp,m,1,0.8105167000030633,-7.16,-7.16,10.14,0,-10.14,0,7.16,-7.16,-7.16,7.16,7.16,7.16,2,232,86,87,6,SL,2,F,29,R,2025-04-18_09h21.51.005,RewSL_SL_EEG,
ping,high,midLeft,DOWN,red,r,lowA,Stimuli\red_bar1.png,Stimuli\red_bar1.png,Stimuli\ping.png,midRight,lowB,downLeft,lowC,downRight,upLeft,upRight,1,m,,,,,0,87,87,2,,,0.6,0.8,exp,m,1,0.6814030000095954,-10.14,0,10.14,0,-7.16,-7.16,7.16,-7.16,-7.16,7.16,7.16,7.16,2,212,87,88,6,SL,2,F,29,R,2025-04-18_09h21.51.005,RewSL_SL_EEG,
ping,lowC,downRight,DOWN,red,l,lowA,Stimuli\red_bar1.png,Stimuli\red_bar1.png,Stimuli\ping.png,midRight,lowB,downLeft,high,midLeft,upLeft,upRight,1,m,,,,,0,88,88,86,,,0.6,0.7,exp,m,1,0.6055840000044554,7.16,-7.16,10.14,0,-7.16,-7.16,-10.14,0,-7.16,7.16,7.16,7.16,2,242,88,89,6,SL,2,F,29,R,2025-04-18_09h21.51.005,RewSL_SL_EEG,
ping,high,midLeft,UP,green,l,lowA,Stimuli\green_bar1.png,Stimuli\green_bar1.png,Stimuli\ping.png,midRight,lowB,downLeft,lowC,downRight,upLeft,upRight,1,z,,,,,0,89,89,37,,,0.6,0.7,exp,z,1,0.6059007000003476,-10.14,0,10.14,0,-7.16,-7.16,7.16,-7.16,-7.16,7.16,7.16,7.16,2,112,89,90,6,SL,2,F,29,R,2025-04-18_09h21.51.005,RewSL_SL_EEG,
ping,high,midLeft,DOWN,green,r,lowA,Stimuli\green_bar1.png,Stimuli\green_bar1.png,Stimuli\ping.png,midRight,lowB,downLeft,lowC,downRight,upLeft,upRight,1,m,,,,,0,90,90,11,,,0.5,0.7,exp,m,1,0.6226494999864371,-10.14,0,10.14,0,-7.16,-7.16,7.16,-7.16,-7.16,7.16,7.16,7.16,2,212,90,91,6,SL,2,F,29,R,2025-04-18_09h21.51.005,RewSL_SL_EEG,
ping,high,midLeft,UP,green,r,lowA,Stimuli\green_bar1.png,Stimuli\green_bar1.png,Stimuli\ping.png,midRight,lowB,downLeft,lowC,downRight,upLeft,upRight,1,z,,,,,0,91,91,1,,,0.4,0.7,exp,z,1,0.6016386999981478,-10.14,0,10.14,0,-7.16,-7.16,7.16,-7.16,-7.16,7.16,7.16,7.16,2,112,91,92,6,SL,2,F,29,R,2025-04-18_09h21.51.005,RewSL_SL_EEG,
ping,lowA,midRight,UP,green,l,high,Stimuli\green_bar1.png,Stimuli\green_bar1.png,Stimuli\ping.png,midLeft,lowB,downLeft,lowC,downRight,upLeft,upRight,1,z,,,,,0,92,92,53,,,0.5,0.8,exp,m,0,0.7233715000038501,10.14,0,-10.14,0,-7.16,-7.16,7.16,-7.16,-7.16,7.16,7.16,7.16,2,122,92,93,6,SL,2,F,29,R,2025-04-18_09h21.51.005,RewSL_SL_EEG,
ping,lowB,downLeft,UP,red,r,lowA,Stimuli\red_bar1.png,Stimuli\red_bar1.png,Stimuli\ping.png,midRight,high,midLeft,lowC,downRight,upLeft,upRight,1,z,,,,,0,93,93,80,,,0.4,0.6,exp,z,1,0.82627119999961,-7.16,-7.16,10.14,0,-10.14,0,7.16,-7.16,-7.16,7.16,7.16,7.16,2,132,93,94,6,SL,2,F,29,R,2025-04-18_09h21.51.005,RewSL_SL_EEG,
ping,high,midLeft,UP,green,r,lowA,Stimuli\green_bar1.png,Stimuli\green_bar1.png,Stimuli\ping.png,midRight,lowB,downLeft,lowC,downRight,upLeft,upRight,1,z,,,,,0,94,94,25,,,0.5,0.8,exp,None,0,,-10.14,0,10.14,0,-7.16,-7.16,7.16,-7.16,-7.16,7.16,7.16,7.16,2,112,94,95,6,SL,2,F,29,R,2025-04-18_09h21.51.005,RewSL_SL_EEG,
ping,lowC,downRight,UP,green,l,lowA,Stimuli\green_bar1.png,Stimuli\green_bar1.png,Stimuli\ping.png,midRight,lowB,downLeft,high,midLeft,upLeft,upRight,1,z,,,,,0,95,95,93,,,0.5,0.6,exp,z,1,0.744587400011369,7.16,-7.16,10.14,0,-7.16,-7.16,-10.14,0,-7.16,7.16,7.16,7.16,2,142,95,96,6,SL,2,F,29,R,2025-04-18_09h21.51.005,RewSL_SL_EEG,
ping,high,midLeft,DOWN,red,l,lowA,Stimuli\red_bar1.png,Stimuli\red_bar1.png,Stimuli\ping.png,midRight,lowB,downLeft,lowC,downRight,upLeft,upRight,1,m,,,,,0,96,96,6,,,0.5,0.7,exp,m,1,0.6823846999905072,-10.14,0,10.14,0,-7.16,-7.16,7.16,-7.16,-7.16,7.16,7.16,7.16,2,212,96,97,6,SL,2,F,29,R,2025-04-18_09h21.51.005,RewSL_SL_EEG,
ping,high,midLeft,UP,green,l,lowA,Stimuli\green_bar1.png,Stimuli\green_bar1.png,Stimuli\ping.png,midRight,lowB,downLeft,lowC,downRight,upLeft,upRight,1,z,,,,,0,97,97,45,,,0.6,0.6,exp,z,1,0.668844400002854,-10.14,0,10.14,0,-7.16,-7.16,7.16,-7.16,-7.16,7.16,7.16,7.16,2,112,97,98,6,SL,2,F,29,R,2025-04-18_09h21.51.005,RewSL_SL_EEG,
ping,high,midLeft,DOWN,red,r,lowA,Stimuli\red_bar1.png,Stimuli\red_bar1.png,Stimuli\ping.png,midRight,lowB,downLeft,lowC,downRight,upLeft,upRight,1,m,,,,,0,98,98,50,,,0.4,0.7,exp,m,1,0.6349343999900157,-10.14,0,10.14,0,-7.16,-7.16,7.16,-7.16,-7.16,7.16,7.16,7.16,2,212,98,99,6,SL,2,F,29,R,2025-04-18_09h21.51.005,RewSL_SL_EEG,
ping,lowB,downLeft,DOWN,red,l,lowA,Stimuli\red_bar1.png,Stimuli\red_bar1.png,Stimuli\ping.png,midRight,high,midLeft,lowC,downRight,upLeft,upRight,1,m,,,,,0,99,99,70,,,0.5,0.7,exp,m,1,0.7057979999954114,-7.16,-7.16,10.14,0,-10.14,0,7.16,-7.16,-7.16,7.16,7.16,7.16,2,232,99,100,6,SL,2,F,29,R,2025-04-18_09h21.51.005,RewSL_SL_EEG,
ping,high,midLeft,UP,red,r,lowA,Stimuli\red_bar1.png,Stimuli\red_bar1.png,Stimuli\ping.png,midRight,lowB,downLeft,lowC,downRight,upLeft,upRight,1,z,,,,,0,0,0,0,,,0.5,0.7,exp,z,1,0.680769099999452,-10.14,0,10.14,0,-7.16,-7.16,7.16,-7.16,-7.16,7.16,7.16,7.16,2,112,100,101,6,SL,2,F,29,R,2025-04-18_09h21.51.005,RewSL_SL_EEG,
ping,high,midLeft,UP,green,r,lowA,Stimuli\green_bar1.png,Stimuli\green_bar1.png,Stimuli\ping.png,midRight,lowB,downLeft,lowC,downRight,upLeft,upRight,1,z,,,,,0,1,1,49,,,0.4,0.7,exp,z,1,0.7059551999991527,-10.14,0,10.14,0,-7.16,-7.16,7.16,-7.16,-7.16,7.16,7.16,7.16,2,112,101,102,6,SL,2,F,29,R,2025-04-18_09h21.51.005,RewSL_SL_EEG,
ping,lowC,downRight,UP,red,r,lowA,Stimuli\red_bar1.png,Stimuli\red_bar1.png,Stimuli\ping.png,midRight,lowB,downLeft,high,midLeft,upLeft,upRight,1,z,,,,,0,2,2,96,,,0.4,0.7,exp,z,1,0.7765763999923365,7.16,-7.16,10.14,0,-7.16,-7.16,-10.14,0,-7.16,7.16,7.16,7.16,2,142,102,103,6,SL,2,F,29,R,2025-04-18_09h21.51.005,RewSL_SL_EEG,
ping,lowA,midRight,UP,red,l,high,Stimuli\red_bar1.png,Stimuli\red_bar1.png,Stimuli\ping.png,midLeft,lowB,downLeft,lowC,downRight,upLeft,upRight,1,z,,,,,0,3,3,60,,,0.5,0.7,exp,z,1,0.5850442000082694,10.14,0,-10.14,0,-7.16,-7.16,7.16,-7.16,-7.16,7.16,7.16,7.16,2,122,103,104,6,SL,2,F,29,R,2025-04-18_09h21.51.005,RewSL_SL_EEG,
ping,high,midLeft,UP,red,r,lowA,Stimuli\red_bar1.png,Stimuli\red_bar1.png,Stimuli\ping.png,midRight,lowB,downLeft,lowC,downRight,upLeft,upRight,1,z,,,,,0,4,4,32,,,0.5,0.7,exp,z,1,0.5268558999960078,-10.14,0,10.14,0,-7.16,-7.16,7.16,-7.16,-7.16,7.16,7.16,7.16,2,112,104,105,6,SL,2,F,29,R,2025-04-18_09h21.51.005,RewSL_SL_EEG,
ping,lowA,midRight,UP,green,r,high,Stimuli\green_bar1.png,Stimuli\green_bar1.png,Stimuli\ping.png,midLeft,lowB,downLeft,lowC,downRight,upLeft,upRight,1,z,,,,,0,5,5,57,,,0.4,0.6,exp,z,1,0.606933700008085,10.14,0,-10.14,0,-7.16,-7.16,7.16,-7.16,-7.16,7.16,7.16,7.16,2,122,105,106,6,SL,2,F,29,R,2025-04-18_09h21.51.005,RewSL_SL_EEG,
ping,lowC,downRight,UP,green,l,lowA,Stimuli\green_bar1.png,Stimuli\green_bar1.png,Stimuli\ping.png,midRight,lowB,downLeft,high,midLeft,upLeft,upRight,1,z,,,,,0,6,6,93,,,0.4,0.8,exp,z,1,0.6935387999983504,7.16,-7.16,10.14,0,-7.16,-7.16,-10.14,0,-7.16,7.16,7.16,7.16,2,142,106,107,6,SL,2,F,29,R,2025-04-18_09h21.51.005,RewSL_SL_EEG,
ping,high,midLeft,DOWN,red,r,lowA,Stimuli\red_bar1.png,Stimuli\red_bar1.png,Stimuli\ping.png,midRight,lowB,downLeft,lowC,downRight,upLeft,upRight,1,m,,,,,0,7,7,50,,,0.6,0.6,exp,m,1,0.61985819999245,-10.14,0,10.14,0,-7.16,-7.16,7.16,-7.16,-7.16,7.16,7.16,7.16,2,212,107,108,6,SL,2,F,29,R,2025-04-18_09h21.51.005,RewSL_SL_EEG,
ping,high,midLeft,UP,green,l,lowA,Stimuli\green_bar1.png,Stimuli\green_bar1.png,Stimuli\ping.png,midRight,lowB,downLeft,lowC,downRight,upLeft,upRight,1,z,,,,,0,8,8,37,,,0.5,0.7,exp,z,1,0.5480752000003122,-10.14,0,10.14,0,-7.16,-7.16,7.16,-7.16,-7.16,7.16,7.16,7.16,2,112,108,109,6,SL,2,F,29,R,2025-04-18_09h21.51.005,RewSL_SL_EEG,
ping,high,midLeft,DOWN,green,l,lowA,Stimuli\green_bar1.png,Stimuli\green_bar1.png,Stimuli\ping.png,midRight,lowB,downLeft,lowC,downRight,upLeft,upRight,1,m,,,,,0,9,9,15,,,0.4,0.7,exp,m,1,0.5392857999977423,-10.14,0,10.14,0,-7.16,-7.16,7.16,-7.16,-7.16,7.16,7.16,7.16,2,212,109,110,6,SL,2,F,29,R,2025-04-18_09h21.51.005,RewSL_SL_EEG,
ping,high,midLeft,DOWN,red,l,lowA,Stimuli\red_bar1.png,Stimuli\red_bar1.png,Stimuli\ping.png,midRight,lowB,downLeft,lowC,downRight,upLeft,upRight,1,m,,,,,0,10,10,46,,,0.5,0.7,exp,m,1,0.46025899999949615,-10.14,0,10.14,0,-7.16,-7.16,7.16,-7.16,-7.16,7.16,7.16,7.16,2,212,110,111,6,SL,2,F,29,R,2025-04-18_09h21.51.005,RewSL_SL_EEG,
ping,lowB,downLeft,DOWN,red,r,lowA,Stimuli\red_bar1.png,Stimuli\red_bar1.png,Stimuli\ping.png,midRight,high,midLeft,lowC,downRight,upLeft,upRight,1,m,,,,,0,11,11,82,,,0.6,0.7,exp,m,1,0.5274499000079231,-7.16,-7.16,10.14,0,-10.14,0,7.16,-7.16,-7.16,7.16,7.16,7.16,2,232,111,112,6,SL,2,F,29,R,2025-04-18_09h21.51.005,RewSL_SL_EEG,
ping,high,midLeft,UP,red,l,lowA,Stimuli\red_bar1.png,Stimuli\red_bar1.png,Stimuli\ping.png,midRight,lowB,downLeft,lowC,downRight,upLeft,upRight,1,z,,,,,0,12,12,12,,,0.4,0.7,exp,z,1,0.4812653999979375,-10.14,0,10.14,0,-7.16,-7.16,7.16,-7.16,-7.16,7.16,7.16,7.16,2,112,112,113,6,SL,2,F,29,R,2025-04-18_09h21.51.005,RewSL_SL_EEG,
ping,high,midLeft,UP,red,l,lowA,Stimuli\red_bar1.png,Stimuli\red_bar1.png,Stimuli\ping.png,midRight,lowB,downLeft,lowC,downRight,upLeft,upRight,1,z,,,,,0,13,13,4,,,0.5,0.6,exp,z,1,0.6025895000057062,-10.14,0,10.14,0,-7.16,-7.16,7.16,-7.16,-7.16,7.16,7.16,7.16,2,112,113,114,6,SL,2,F,29,R,2025-04-18_09h21.51.005,RewSL_SL_EEG,
ping,high,midLeft,UP,green,r,lowA,Stimuli\green_bar1.png,Stimuli\green_bar1.png,Stimuli\ping.png,midRight,lowB,downLeft,lowC,downRight,upLeft,upRight,1,z,,,,,0,14,14,17,,,0.5,0.7,exp,z,1,0.5560081000003265,-10.14,0,10.14,0,-7.16,-7.16,7.16,-7.16,-7.16,7.16,7.16,7.16,2,112,114,115,6,SL,2,F,29,R,2025-04-18_09h21.51.005,RewSL_SL_EEG,
ping,high,midLeft,UP,green,r,lowA,Stimuli\green_bar1.png,Stimuli\green_bar1.png,Stimuli\ping.png,midRight,lowB,downLeft,lowC,downRight,upLeft,upRight,1,z,,,,,0,15,15,1,,,0.5,0.8,exp,z,1,0.5526019999961136,-10.14,0,10.14,0,-7.16,-7.16,7.16,-7.16,-7.16,7.16,7.16,7.16,2,112,115,116,6,SL,2,F,29,R,2025-04-18_09h21.51.005,RewSL_SL_EEG,
ping,high,midLeft,DOWN,green,r,lowA,Stimuli\green_bar1.png,Stimuli\green_bar1.png,Stimuli\ping.png,midRight,lowB,downLeft,lowC,downRight,upLeft,upRight,1,m,,,,,0,16,16,11,,,0.5,0.7,exp,z,0,0.810268699991866,-10.14,0,10.14,0,-7.16,-7.16,7.16,-7.16,-7.16,7.16,7.16,7.16,2,212,116,117,6,SL,2,F,29,R,2025-04-18_09h21.51.005,RewSL_SL_EEG,
ping,lowC,downRight,DOWN,red,l,lowA,Stimuli\red_bar1.png,Stimuli\red_bar1.png,Stimuli\ping.png,midRight,lowB,downLeft,high,midLeft,upLeft,upRight,1,m,,,,,0,17,17,94,,,0.4,0.8,exp,m,1,0.7351351999968756,7.16,-7.16,10.14,0,-7.16,-7.16,-10.14,0,-7.16,7.16,7.16,7.16,2,242,117,118,6,SL,2,F,29,R,2025-04-18_09h21.51.005,RewSL_SL_EEG,
ping,lowC,downRight,DOWN,red,r,lowA,Stimuli\red_bar1.png,Stimuli\red_bar1.png,Stimuli\ping.png,midRight,lowB,downLeft,high,midLeft,upLeft,upRight,1,m,,,,,0,18,18,98,,,0.4,0.6,exp,m,1,0.5396354999975301,7.16,-7.16,10.14,0,-7.16,-7.16,-10.14,0,-7.16,7.16,7.16,7.16,2,242,118,119,6,SL,2,F,29,R,2025-04-18_09h21.51.005,RewSL_SL_EEG,
ping,high,midLeft,UP,red,l,lowA,Stimuli\red_bar1.png,Stimuli\red_bar1.png,Stimuli\ping.png,midRight,lowB,downLeft,lowC,downRight,upLeft,upRight,1,z,,,,,0,19,19,28,,,0.4,0.7,exp,z,1,0.5858580999920378,-10.14,0,10.14,0,-7.16,-7.16,7.16,-7.16,-7.16,7.16,7.16,7.16,2,112,119,120,6,SL,2,F,29,R,2025-04-18_09h21.51.005,RewSL_SL_EEG,
ping,lowC,downRight,UP,green,r,lowA,Stimuli\green_bar1.png,Stimuli\green_bar1.png,Stimuli\ping.png,midRight,lowB,downLeft,high,midLeft,upLeft,upRight,1,z,,,,,0,20,20,97,,,0.5,0.7,exp,z,1,0.5726299999951152,7.16,-7.16,10.14,0,-7.16,-7.16,-10.14,0,-7.16,7.16,7.16,7.16,2,142,120,121,6,SL,2,F,29,R,2025-04-18_09h21.51.005,RewSL_SL_EEG,
ping,high,midLeft,UP,red,l,lowA,Stimuli\red_bar1.png,Stimuli\red_bar1.png,Stimuli\ping.png,midRight,lowB,downLeft,lowC,downRight,upLeft,upRight,1,z,,,,,0,21,21,36,,,0.4,0.6,exp,z,1,0.7362556000007316,-10.14,0,10.14,0,-7.16,-7.16,7.16,-7.16,-7.16,7.16,7.16,7.16,2,112,121,122,6,SL,2,F,29,R,2025-04-18_09h21.51.005,RewSL_SL_EEG,
ping,lowA,midRight,UP,red,l,high,Stimuli\red_bar1.png,Stimuli\red_bar1.png,Stimuli\ping.png,midLeft,lowB,downLeft,lowC,downRight,upLeft,upRight,1,z,,,,,0,22,22,52,,,0.5,0.7,exp,z,1,0.7061080999992555,10.14,0,-10.14,0,-7.16,-7.16,7.16,-7.16,-7.16,7.16,7.16,7.16,2,122,122,123,6,SL,2,F,29,R,2025-04-18_09h21.51.005,RewSL_SL_EEG,
ping,high,midLeft,UP,green,l,lowA,Stimuli\green_bar1.png,Stimuli\green_bar1.png,Stimuli\ping.png,midRight,lowB,downLeft,lowC,downRight,upLeft,upRight,1,z,,,,,0,23,23,29,,,0.4,0.8,exp,z,1,0.5849536000023363,-10.14,0,10.14,0,-7.16,-7.16,7.16,-7.16,-7.16,7.16,7.16,7.16,2,112,123,124,6,SL,2,F,29,R,2025-04-18_09h21.51.005,RewSL_SL_EEG,
ping,high,midLeft,UP,green,r,lowA,Stimuli\green_bar1.png,Stimuli\green_bar1.png,Stimuli\ping.png,midRight,lowB,downLeft,lowC,downRight,upLeft,upRight,1,z,,,,,0,24,24,33,,,0.4,0.7,exp,z,1,0.6397016000119038,-10.14,0,10.14,0,-7.16,-7.16,7.16,-7.16,-7.16,7.16,7.16,7.16,2,112,124,125,6,SL,2,F,29,R,2025-04-18_09h21.51.005,RewSL_SL_EEG,
ping,high,midLeft,UP,green,l,lowA,Stimuli\green_bar1.png,Stimuli\green_bar1.png,Stimuli\ping.png,midRight,lowB,downLeft,lowC,downRight,upLeft,upRight,1,z,,,,,0,25,25,21,,,0.5,0.7,exp,m,0,0.75635229999898,-10.14,0,10.14,0,-7.16,-7.16,7.16,-7.16,-7.16,7.16,7.16,7.16,2,112,125,126,6,SL,2,F,29,R,2025-04-18_09h21.51.005,RewSL_SL_EEG,
ping,high,midLeft,UP,red,l,lowA,Stimuli\red_bar1.png,Stimuli\red_bar1.png,Stimuli\ping.png,midRight,lowB,downLeft,lowC,downRight,upLeft,upRight,1,z,,,,,0,26,26,20,,,0.5,0.7,exp,z,1,0.6891336999979103,-10.14,0,10.14,0,-7.16,-7.16,7.16,-7.16,-7.16,7.16,7.16,7.16,2,112,126,127,6,SL,2,F,29,R,2025-04-18_09h21.51.005,RewSL_SL_EEG,
ping,lowC,downRight,DOWN,green,r,lowA,Stimuli\green_bar1.png,Stimuli\green_bar1.png,Stimuli\ping.png,midRight,lowB,downLeft,high,midLeft,upLeft,upRight,1,m,,,,,0,27,27,99,,,0.5,0.6,exp,m,1,0.7016492999973707,7.16,-7.16,10.14,0,-7.16,-7.16,-10.14,0,-7.16,7.16,7.16,7.16,2,242,127,128,6,SL,2,F,29,R,2025-04-18_09h21.51.005,RewSL_SL_EEG,
ping,lowB,downLeft,DOWN,green,r,lowA,Stimuli\green_bar1.png,Stimuli\green_bar1.png,Stimuli\ping.png,midRight,high,midLeft,lowC,downRight,upLeft,upRight,1,m,,,,,0,28,28,83,,,0.5,0.6,exp,m,1,0.801334499992663,-7.16,-7.16,10.14,0,-10.14,0,7.16,-7.16,-7.16,7.16,7.16,7.16,2,232,128,129,6,SL,2,F,29,R,2025-04-18_09h21.51.005,RewSL_SL_EEG,
ping,lowC,downRight,UP,green,r,lowA,Stimuli\green_bar1.png,Stimuli\green_bar1.png,Stimuli\ping.png,midRight,lowB,downLeft,high,midLeft,upLeft,upRight,1,z,,,,,0,29,29,89,,,0.6,0.8,exp,z,1,0.7472804999997607,7.16,-7.16,10.14,0,-7.16,-7.16,-10.14,0,-7.16,7.16,7.16,7.16,2,142,129,130,6,SL,2,F,29,R,2025-04-18_09h21.51.005,RewSL_SL_EEG,
ping,high,midLeft,DOWN,red,l,lowA,Stimuli\red_bar1.png,Stimuli\red_bar1.png,Stimuli\ping.png,midRight,lowB,downLeft,lowC,downRight,upLeft,upRight,1,m,,,,,0,30,30,30,,,0.5,0.6,exp,z,0,0.5683466000045883,-10.14,0,10.14,0,-7.16,-7.16,7.16,-7.16,-7.16,7.16,7.16,7.16,2,212,130,131,6,SL,2,F,29,R,2025-04-18_09h21.51.005,RewSL_SL_EEG,
ping,high,midLeft,DOWN,green,r,lowA,Stimuli\green_bar1.png,Stimuli\green_bar1.png,Stimuli\ping.png,midRight,lowB,downLeft,lowC,downRight,upLeft,upRight,1,m,,,,,0,31,31,35,,,0.6,0.6,exp,m,1,0.6356293999997433,-10.14,0,10.14,0,-7.16,-7.16,7.16,-7.16,-7.16,7.16,7.16,7.16,2,212,131,132,6,SL,2,F,29,R,2025-04-18_09h21.51.005,RewSL_SL_EEG,
ping,high,midLeft,DOWN,red,r,lowA,Stimuli\red_bar1.png,Stimuli\red_bar1.png,Stimuli\ping.png,midRight,lowB,downLeft,lowC,downRight,upLeft,upRight,1,m,,,,,0,32,32,2,,,0.5,0.6,exp,m,1,0.5774088000034681,-10.14,0,10.14,0,-7.16,-7.16,7.16,-7.16,-7.16,7.16,7.16,7.16,2,212,132,133,6,SL,2,F,29,R,2025-04-18_09h21.51.005,RewSL_SL_EEG,
ping,lowA,midRight,DOWN,red,r,high,Stimuli\red_bar1.png,Stimuli\red_bar1.png,Stimuli\ping.png,midLeft,lowB,downLeft,lowC,downRight,upLeft,upRight,1,m,,,,,0,33,33,58,,,0.5,0.7,exp,m,1,0.5519764999917243,10.14,0,-10.14,0,-7.16,-7.16,7.16,-7.16,-7.16,7.16,7.16,7.16,2,222,133,134,6,SL,2,F,29,R,2025-04-18_09h21.51.005,RewSL_SL_EEG,
ping,high,midLeft,UP,red,l,lowA,Stimuli\red_bar1.png,Stimuli\red_bar1.png,Stimuli\ping.png,midRight,lowB,downLeft,lowC,downRight,upLeft,upRight,1,z,,,,,0,34,34,44,,,0.5,0.8,exp,z,1,0.6147781000036048,-10.14,0,10.14,0,-7.16,-7.16,7.16,-7.16,-7.16,7.16,7.16,7.16,2,112,134,135,6,SL,2,F,29,R,2025-04-18_09h21.51.005,RewSL_SL_EEG,
ping,lowA,midRight,DOWN,red,l,high,Stimuli\red_bar1.png,Stimuli\red_bar1.png,Stimuli\ping.png,midLeft,lowB,downLeft,lowC,downRight,upLeft,upRight,1,m,,,,,0,35,35,54,,,0.5,0.7,exp,m,1,0.527176600007806,10.14,0,-10.14,0,-7.16,-7.16,7.16,-7.16,-7.16,7.16,7.16,7.16,2,222,135,136,6,SL,2,F,29,R,2025-04-18_09h21.51.005,RewSL_SL_EEG,
ping,high,midLeft,DOWN,red,l,lowA,Stimuli\red_bar1.png,Stimuli\red_bar1.png,Stimuli\ping.png,midRight,lowB,downLeft,lowC,downRight,upLeft,upRight,1,m,,,,,0,36,36,14,,,0.6,0.6,exp,m,1,0.5567261000105646,-10.14,0,10.14,0,-7.16,-7.16,7.16,-7.16,-7.16,7.16,7.16,7.16,2,212,136,137,6,SL,2,F,29,R,2025-04-18_09h21.51.005,RewSL_SL_EEG,
ping,lowA,midRight,UP,red,r,high,Stimuli\red_bar1.png,Stimuli\red_bar1.png,Stimuli\ping.png,midLeft,lowB,downLeft,lowC,downRight,upLeft,upRight,1,z,,,,,0,37,37,56,,,0.4,0.8,exp,z,1,0.8025024000089616,10.14,0,-10.14,0,-7.16,-7.16,7.16,-7.16,-7.16,7.16,7.16,7.16,2,122,137,138,6,SL,2,F,29,R,2025-04-18_09h21.51.005,RewSL_SL_EEG,
ping,high,midLeft,DOWN,green,r,lowA,Stimuli\green_bar1.png,Stimuli\green_bar1.png,Stimuli\ping.png,midRight,lowB,downLeft,lowC,downRight,upLeft,upRight,1,m,,,,,0,38,38,3,,,0.5,0.6,exp,m,1,1.2603549000050407,-10.14,0,10.14,0,-7.16,-7.16,7.16,-7.16,-7.16,7.16,7.16,7.16,2,212,138,139,6,SL,2,F,29,R,2025-04-18_09h21.51.005,RewSL_SL_EEG,
ping,lowB,downLeft,UP,green,l,lowA,Stimuli\green_bar1.png,Stimuli\green_bar1.png,Stimuli\ping.png,midRight,high,midLeft,lowC,downRight,upLeft,upRight,1,z,,,,,0,39,39,69,,,0.6,0.8,exp,None,0,,-7.16,-7.16,10.14,0,-10.14,0,7.16,-7.16,-7.16,7.16,7.16,7.16,2,132,139,140,6,SL,2,F,29,R,2025-04-18_09h21.51.005,RewSL_SL_EEG,
ping,high,midLeft,UP,red,r,lowA,Stimuli\red_bar1.png,Stimuli\red_bar1.png,Stimuli\ping.png,midRight,lowB,downLeft,lowC,downRight,upLeft,upRight,1,z,,,,,0,40,40,16,,,0.4,0.6,exp,z,1,0.5325827999913599,-10.14,0,10.14,0,-7.16,-7.16,7.16,-7.16,-7.16,7.16,7.16,7.16,2,112,140,141,6,SL,2,F,29,R,2025-04-18_09h21.51.005,RewSL_SL_EEG,
ping,lowB,downLeft,DOWN,red,r,lowA,Stimuli\red_bar1.png,Stimuli\red_bar1.png,Stimuli\ping.png,midRight,high,midLeft,lowC,downRight,upLeft,upRight,1,m,,,,,0,41,41,74,,,0.5,0.6,exp,m,1,0.7023947999987286,-7.16,-7.16,10.14,0,-10.14,0,7.16,-7.16,-7.16,7.16,7.16,7.16,2,232,141,142,6,SL,2,F,29,R,2025-04-18_09h21.51.005,RewSL_SL_EEG,
ping,lowC,downRight,DOWN,green,l,lowA,Stimuli\green_bar1.png,Stimuli\green_bar1.png,Stimuli\ping.png,midRight,lowB,downLeft,high,midLeft,upLeft,upRight,1,m,,,,,0,42,42,95,,,0.5,0.8,exp,m,1,0.8308479999977862,7.16,-7.16,10.14,0,-7.16,-7.16,-10.14,0,-7.16,7.16,7.16,7.16,2,242,142,143,6,SL,2,F,29,R,2025-04-18_09h21.51.005,RewSL_SL_EEG,
ping,high,midLeft,DOWN,green,l,lowA,Stimuli\green_bar1.png,Stimuli\green_bar1.png,Stimuli\ping.png,midRight,lowB,downLeft,lowC,downRight,upLeft,upRight,1,m,,,,,0,43,43,23,,,0.6,0.8,exp,m,1,0.7680017000093358,-10.14,0,10.14,0,-7.16,-7.16,7.16,-7.16,-7.16,7.16,7.16,7.16,2,212,143,144,6,SL,2,F,29,R,2025-04-18_09h21.51.005,RewSL_SL_EEG,
ping,lowB,downLeft,UP,green,r,lowA,Stimuli\green_bar1.png,Stimuli\green_bar1.png,Stimuli\ping.png,midRight,high,midLeft,lowC,downRight,upLeft,upRight,1,z,,,,,0,44,44,81,,,0.6,0.8,exp,z,1,0.6312433000130113,-7.16,-7.16,10.14,0,-10.14,0,7.16,-7.16,-7.16,7.16,7.16,7.16,2,132,144,145,6,SL,2,F,29,R,2025-04-18_09h21.51.005,RewSL_SL_EEG,
ping,lowC,downRight,UP,red,l,lowA,Stimuli\red_bar1.png,Stimuli\red_bar1.png,Stimuli\ping.png,midRight,lowB,downLeft,high,midLeft,upLeft,upRight,1,z,,,,,0,45,45,84,,,0.6,0.7,exp,z,1,0.8023057999962475,7.16,-7.16,10.14,0,-7.16,-7.16,-10.14,0,-7.16,7.16,7.16,7.16,2,142,145,146,6,SL,2,F,29,R,2025-04-18_09h21.51.005,RewSL_SL_EEG,
ping,high,midLeft,UP,red,r,lowA,Stimuli\red_bar1.png,Stimuli\red_bar1.png,Stimuli\ping.png,midRight,lowB,downLeft,lowC,downRight,upLeft,upRight,1,z,,,,,0,46,46,8,,,0.4,0.6,exp,z,1,0.5937192999990657,-10.14,0,10.14,0,-7.16,-7.16,7.16,-7.16,-7.16,7.16,7.16,7.16,2,112,146,147,6,SL,2,F,29,R,2025-04-18_09h21.51.005,RewSL_SL_EEG,
ping,high,midLeft,DOWN,green,r,lowA,Stimuli\green_bar1.png,Stimuli\green_bar1.png,Stimuli\ping.png,midRight,lowB,downLeft,lowC,downRight,upLeft,upRight,1,m,,,,,0,47,47,51,,,0.5,0.6,exp,m,1,0.7185980999929598,-10.14,0,10.14,0,-7.16,-7.16,7.16,-7.16,-7.16,7.16,7.16,7.16,2,212,147,148,6,SL,2,F,29,R,2025-04-18_09h21.51.005,RewSL_SL_EEG,
ping,high,midLeft,DOWN,green,r,lowA,Stimuli\green_bar1.png,Stimuli\green_bar1.png,Stimuli\ping.png,midRight,lowB,downLeft,lowC,downRight,upLeft,upRight,1,m,,,,,0,48,48,19,,,0.6,0.6,exp,m,1,0.518294399997103,-10.14,0,10.14,0,-7.16,-7.16,7.16,-7.16,-7.16,7.16,7.16,7.16,2,212,148,149,6,SL,2,F,29,R,2025-04-18_09h21.51.005,RewSL_SL_EEG,
ping,high,midLeft,DOWN,green,r,lowA,Stimuli\green_bar1.png,Stimuli\green_bar1.png,Stimuli\ping.png,midRight,lowB,downLeft,lowC,downRight,upLeft,upRight,1,m,,,,,0,49,49,27,,,0.5,0.7,exp,m,1,0.4892396999930497,-10.14,0,10.14,0,-7.16,-7.16,7.16,-7.16,-7.16,7.16,7.16,7.16,2,212,149,150,6,SL,2,F,29,R,2025-04-18_09h21.51.005,RewSL_SL_EEG,
ping,lowC,downRight,DOWN,red,l,lowA,Stimuli\red_bar1.png,Stimuli\red_bar1.png,Stimuli\ping.png,midRight,lowB,downLeft,high,midLeft,upLeft,upRight,1,m,,,,,0,50,50,86,,,0.4,0.7,exp,m,1,1.0725619000004372,7.16,-7.16,10.14,0,-7.16,-7.16,-10.14,0,-7.16,7.16,7.16,7.16,2,242,150,151,6,SL,2,F,29,R,2025-04-18_09h21.51.005,RewSL_SL_EEG,
ping,lowA,midRight,DOWN,red,r,high,Stimuli\red_bar1.png,Stimuli\red_bar1.png,Stimuli\ping.png,midLeft,lowB,downLeft,lowC,downRight,upLeft,upRight,1,m,,,,,0,51,51,66,,,0.6,0.7,exp,m,1,0.6730538999981945,10.14,0,-10.14,0,-7.16,-7.16,7.16,-7.16,-7.16,7.16,7.16,7.16,2,222,151,152,6,SL,2,F,29,R,2025-04-18_09h21.51.005,RewSL_SL_EEG,
ping,lowA,midRight,DOWN,green,l,high,Stimuli\green_bar1.png,Stimuli\green_bar1.png,Stimuli\ping.png,midLeft,lowB,downLeft,lowC,downRight,upLeft,upRight,1,m,,,,,0,52,52,63,,,0.5,0.7,exp,m,1,0.4812106000026688,10.14,0,-10.14,0,-7.16,-7.16,7.16,-7.16,-7.16,7.16,7.16,7.16,2,222,152,153,6,SL,2,F,29,R,2025-04-18_09h21.51.005,RewSL_SL_EEG,
ping,high,midLeft,UP,red,r,lowA,Stimuli\red_bar1.png,Stimuli\red_bar1.png,Stimuli\ping.png,midRight,lowB,downLeft,lowC,downRight,upLeft,upRight,1,z,,,,,0,53,53,24,,,0.4,0.8,exp,z,1,0.6811679000093136,-10.14,0,10.14,0,-7.16,-7.16,7.16,-7.16,-7.16,7.16,7.16,7.16,2,112,153,154,6,SL,2,F,29,R,2025-04-18_09h21.51.005,RewSL_SL_EEG,
ping,high,midLeft,DOWN,red,r,lowA,Stimuli\red_bar1.png,Stimuli\red_bar1.png,Stimuli\ping.png,midRight,lowB,downLeft,lowC,downRight,upLeft,upRight,1,m,,,,,0,54,54,34,,,0.6,0.8,exp,m,1,0.5979150000057416,-10.14,0,10.14,0,-7.16,-7.16,7.16,-7.16,-7.16,7.16,7.16,7.16,2,212,154,155,6,SL,2,F,29,R,2025-04-18_09h21.51.005,RewSL_SL_EEG,
ping,lowC,downRight,DOWN,red,r,lowA,Stimuli\red_bar1.png,Stimuli\red_bar1.png,Stimuli\ping.png,midRight,lowB,downLeft,high,midLeft,upLeft,upRight,1,m,,,,,0,55,55,90,,,0.6,0.7,exp,m,1,0.6777169999986654,7.16,-7.16,10.14,0,-7.16,-7.16,-10.14,0,-7.16,7.16,7.16,7.16,2,242,155,156,6,SL,2,F,29,R,2025-04-18_09h21.51.005,RewSL_SL_EEG,
ping,high,midLeft,DOWN,red,r,lowA,Stimuli\red_bar1.png,Stimuli\red_bar1.png,Stimuli\ping.png,midRight,lowB,downLeft,lowC,downRight,upLeft,upRight,1,m,,,,,0,56,56,18,,,0.5,0.7,exp,m,1,0.4725902999925893,-10.14,0,10.14,0,-7.16,-7.16,7.16,-7.16,-7.16,7.16,7.16,7.16,2,212,156,157,6,SL,2,F,29,R,2025-04-18_09h21.51.005,RewSL_SL_EEG,
ping,lowB,downLeft,DOWN,red,l,lowA,Stimuli\red_bar1.png,Stimuli\red_bar1.png,Stimuli\ping.png,midRight,high,midLeft,lowC,downRight,upLeft,upRight,1,m,,,,,0,57,57,78,,,0.6,0.7,exp,m,1,0.7603966000024229,-7.16,-7.16,10.14,0,-10.14,0,7.16,-7.16,-7.16,7.16,7.16,7.16,2,232,157,158,6,SL,2,F,29,R,2025-04-18_09h21.51.005,RewSL_SL_EEG,
ping,high,midLeft,UP,red,r,lowA,Stimuli\red_bar1.png,Stimuli\red_bar1.png,Stimuli\ping.png,midRight,lowB,downLeft,lowC,downRight,upLeft,upRight,1,z,,,,,0,58,58,48,,,0.4,0.7,exp,z,1,0.5643086000054609,-10.14,0,10.14,0,-7.16,-7.16,7.16,-7.16,-7.16,7.16,7.16,7.16,2,112,158,159,6,SL,2,F,29,R,2025-04-18_09h21.51.005,RewSL_SL_EEG,
ping,lowB,downLeft,DOWN,red,l,lowA,Stimuli\red_bar1.png,Stimuli\red_bar1.png,Stimuli\ping.png,midRight,high,midLeft,lowC,downRight,upLeft,upRight,1,m,,,,,0,59,59,70,,,0.4,0.7,exp,m,1,0.5727156999928411,-7.16,-7.16,10.14,0,-10.14,0,7.16,-7.16,-7.16,7.16,7.16,7.16,2,232,159,160,6,SL,2,F,29,R,2025-04-18_09h21.51.005,RewSL_SL_EEG,
ping,lowB,downLeft,UP,red,l,lowA,Stimuli\red_bar1.png,Stimuli\red_bar1.png,Stimuli\ping.png,midRight,high,midLeft,lowC,downRight,upLeft,upRight,1,z,,,,,0,60,60,68,,,0.4,0.8,exp,z,1,0.7562541999941459,-7.16,-7.16,10.14,0,-10.14,0,7.16,-7.16,-7.16,7.16,7.16,7.16,2,132,160,161,6,SL,2,F,29,R,2025-04-18_09h21.51.005,RewSL_SL_EEG,
ping,lowA,midRight,DOWN,red,l,high,Stimuli\red_bar1.png,Stimuli\red_bar1.png,Stimuli\ping.png,midLeft,lowB,downLeft,lowC,downRight,upLeft,upRight,1,m,,,,,0,61,61,62,,,0.5,0.8,exp,m,1,1.0442463000072166,10.14,0,-10.14,0,-7.16,-7.16,7.16,-7.16,-7.16,7.16,7.16,7.16,2,222,161,162,6,SL,2,F,29,R,2025-04-18_09h21.51.005,RewSL_SL_EEG,
ping,high,midLeft,DOWN,green,l,lowA,Stimuli\green_bar1.png,Stimuli\green_bar1.png,Stimuli\ping.png,midRight,lowB,downLeft,lowC,downRight,upLeft,upRight,1,m,,,,,0,62,62,47,,,0.5,0.6,exp,m,1,0.6683582000114257,-10.14,0,10.14,0,-7.16,-7.16,7.16,-7.16,-7.16,7.16,7.16,7.16,2,212,162,163,6,SL,2,F,29,R,2025-04-18_09h21.51.005,RewSL_SL_EEG,
ping,lowB,downLeft,UP,red,r,lowA,Stimuli\red_bar1.png,Stimuli\red_bar1.png,Stimuli\ping.png,midRight,high,midLeft,lowC,downRight,upLeft,upRight,1,z,,,,,0,63,63,72,,,0.5,0.7,exp,z,1,0.6191101000003982,-7.16,-7.16,10.14,0,-10.14,0,7.16,-7.16,-7.16,7.16,7.16,7.16,2,132,163,164,6,SL,2,F,29,R,2025-04-18_09h21.51.005,RewSL_SL_EEG,
ping,lowB,downLeft,DOWN,green,r,lowA,Stimuli\green_bar1.png,Stimuli\green_bar1.png,Stimuli\ping.png,midRight,high,midLeft,lowC,downRight,upLeft,upRight,1,m,,,,,0,64,64,75,,,0.6,0.8,exp,m,1,0.5473116999928607,-7.16,-7.16,10.14,0,-10.14,0,7.16,-7.16,-7.16,7.16,7.16,7.16,2,232,164,165,6,SL,2,F,29,R,2025-04-18_09h21.51.005,RewSL_SL_EEG,
ping,lowB,downLeft,UP,green,l,lowA,Stimuli\green_bar1.png,Stimuli\green_bar1.png,Stimuli\ping.png,midRight,high,midLeft,lowC,downRight,upLeft,upRight,1,z,,,,,0,65,65,77,,,0.6,0.7,exp,z,1,0.6651633000001311,-7.16,-7.16,10.14,0,-10.14,0,7.16,-7.16,-7.16,7.16,7.16,7.16,2,132,165,166,6,SL,2,F,29,R,2025-04-18_09h21.51.005,RewSL_SL_EEG,
ping,high,midLeft,UP,red,r,lowA,Stimuli\red_bar1.png,Stimuli\red_bar1.png,Stimuli\ping.png,midRight,lowB,downLeft,lowC,downRight,upLeft,upRight,1,z,,,,,0,66,66,40,,,0.4,0.6,exp,z,1,0.5142652999929851,-10.14,0,10.14,0,-7.16,-7.16,7.16,-7.16,-7.16,7.16,7.16,7.16,2,112,166,167,6,SL,2,F,29,R,2025-04-18_09h21.51.005,RewSL_SL_EEG,
ping,lowA,midRight,UP,red,r,high,Stimuli\red_bar1.png,Stimuli\red_bar1.png,Stimuli\ping.png,midLeft,lowB,downLeft,lowC,downRight,upLeft,upRight,1,z,,,,,0,67,67,64,,,0.5,0.7,exp,m,0,0.652183199999854,10.14,0,-10.14,0,-7.16,-7.16,7.16,-7.16,-7.16,7.16,7.16,7.16,2,122,167,168,6,SL,2,F,29,R,2025-04-18_09h21.51.005,RewSL_SL_EEG,
ping,lowB,downLeft,UP,green,r,lowA,Stimuli\green_bar1.png,Stimuli\green_bar1.png,Stimuli\ping.png,midRight,high,midLeft,lowC,downRight,upLeft,upRight,1,z,,,,,0,68,68,73,,,0.4,0.7,exp,z,1,0.7850094000023091,-7.16,-7.16,10.14,0,-10.14,0,7.16,-7.16,-7.16,7.16,7.16,7.16,2,132,168,169,6,SL,2,F,29,R,2025-04-18_09h21.51.005,RewSL_SL_EEG,
ping,high,midLeft,UP,green,r,lowA,Stimuli\green_bar1.png,Stimuli\green_bar1.png,Stimuli\ping.png,midRight,lowB,downLeft,lowC,downRight,upLeft,upRight,1,z,,,,,0,69,69,25,,,0.6,0.7,exp,z,1,0.5100183999893488,-10.14,0,10.14,0,-7.16,-7.16,7.16,-7.16,-7.16,7.16,7.16,7.16,2,112,169,170,6,SL,2,F,29,R,2025-04-18_09h21.51.005,RewSL_SL_EEG,
ping,high,midLeft,DOWN,red,l,lowA,Stimuli\red_bar1.png,Stimuli\red_bar1.png,Stimuli\ping.png,midRight,lowB,downLeft,lowC,downRight,upLeft,upRight,1,m,,,,,0,70,70,22,,,0.5,0.7,exp,m,1,0.5476120999956038,-10.14,0,10.14,0,-7.16,-7.16,7.16,-7.16,-7.16,7.16,7.16,7.16,2,212,170,171,6,SL,2,F,29,R,2025-04-18_09h21.51.005,RewSL_SL_EEG,
ping,high,midLeft,DOWN,green,l,lowA,Stimuli\green_bar1.png,Stimuli\green_bar1.png,Stimuli\ping.png,midRight,lowB,downLeft,lowC,downRight,upLeft,upRight,1,m,,,,,0,71,71,7,,,0.5,0.6,exp,m,1,0.49002460000338033,-10.14,0,10.14,0,-7.16,-7.16,7.16,-7.16,-7.16,7.16,7.16,7.16,2,212,171,172,6,SL,2,F,29,R,2025-04-18_09h21.51.005,RewSL_SL_EEG,
ping,lowC,downRight,UP,red,r,lowA,Stimuli\red_bar1.png,Stimuli\red_bar1.png,Stimuli\ping.png,midRight,lowB,downLeft,high,midLeft,upLeft,upRight,1,z,,,,,0,72,72,88,,,0.4,0.8,exp,z,1,0.6438563999981852,7.16,-7.16,10.14,0,-7.16,-7.16,-10.14,0,-7.16,7.16,7.16,7.16,2,142,172,173,6,SL,2,F,29,R,2025-04-18_09h21.51.005,RewSL_SL_EEG,
ping,high,midLeft,DOWN,green,r,lowA,Stimuli\green_bar1.png,Stimuli\green_bar1.png,Stimuli\ping.png,midRight,lowB,downLeft,lowC,downRight,upLeft,upRight,1,m,,,,,0,73,73,43,,,0.5,0.8,exp,m,1,0.6263060000055702,-10.14,0,10.14,0,-7.16,-7.16,7.16,-7.16,-7.16,7.16,7.16,7.16,2,212,173,174,6,SL,2,F,29,R,2025-04-18_09h21.51.005,RewSL_SL_EEG,
ping,lowA,midRight,DOWN,green,r,high,Stimuli\green_bar1.png,Stimuli\green_bar1.png,Stimuli\ping.png,midLeft,lowB,downLeft,lowC,downRight,upLeft,upRight,1,m,,,,,0,74,74,59,,,0.4,0.6,exp,m,1,0.5266278999915812,10.14,0,-10.14,0,-7.16,-7.16,7.16,-7.16,-7.16,7.16,7.16,7.16,2,222,174,175,6,SL,2,F,29,R,2025-04-18_09h21.51.005,RewSL_SL_EEG,
ping,lowA,midRight,UP,green,l,high,Stimuli\green_bar1.png,Stimuli\green_bar1.png,Stimuli\ping.png,midLeft,lowB,downLeft,lowC,downRight,upLeft,upRight,1,z,,,,,0,75,75,61,,,0.4,0.6,exp,m,0,0.5017808999982662,10.14,0,-10.14,0,-7.16,-7.16,7.16,-7.16,-7.16,7.16,7.16,7.16,2,122,175,176,6,SL,2,F,29,R,2025-04-18_09h21.51.005,RewSL_SL_EEG,
ping,lowB,downLeft,DOWN,green,l,lowA,Stimuli\green_bar1.png,Stimuli\green_bar1.png,Stimuli\ping.png,midRight,high,midLeft,lowC,downRight,upLeft,upRight,1,m,,,,,0,76,76,79,,,0.4,0.7,exp,m,1,0.9942061000037938,-7.16,-7.16,10.14,0,-10.14,0,7.16,-7.16,-7.16,7.16,7.16,7.16,2,232,176,177,6,SL,2,F,29,R,2025-04-18_09h21.51.005,RewSL_SL_EEG,
ping,high,midLeft,UP,green,r,lowA,Stimuli\green_bar1.png,Stimuli\green_bar1.png,Stimuli\ping.png,midRight,lowB,downLeft,lowC,downRight,upLeft,upRight,1,z,,,,,0,77,77,41,,,0.4,0.8,exp,z,1,0.560808399997768,-10.14,0,10.14,0,-7.16,-7.16,7.16,-7.16,-7.16,7.16,7.16,7.16,2,112,177,178,6,SL,2,F,29,R,2025-04-18_09h21.51.005,RewSL_SL_EEG,
ping,lowA,midRight,DOWN,green,r,high,Stimuli\green_bar1.png,Stimuli\green_bar1.png,Stimuli\ping.png,midLeft,lowB,downLeft,lowC,downRight,upLeft,upRight,1,m,,,,,0,78,78,67,,,0.5,0.8,exp,m,1,0.8809843999915756,10.14,0,-10.14,0,-7.16,-7.16,7.16,-7.16,-7.16,7.16,7.16,7.16,2,222,178,179,6,SL,2,F,29,R,2025-04-18_09h21.51.005,RewSL_SL_EEG,
ping,high,midLeft,DOWN,green,l,lowA,Stimuli\green_bar1.png,Stimuli\green_bar1.png,Stimuli\ping.png,midRight,lowB,downLeft,lowC,downRight,upLeft,upRight,1,m,,,,,0,79,79,31,,,0.4,0.6,exp,z,0,0.9436929000075907,-10.14,0,10.14,0,-7.16,-7.16,7.16,-7.16,-7.16,7.16,7.16,7.16,2,212,179,180,6,SL,2,F,29,R,2025-04-18_09h21.51.005,RewSL_SL_EEG,
ping,high,midLeft,DOWN,red,r,lowA,Stimuli\red_bar1.png,Stimuli\red_bar1.png,Stimuli\ping.png,midRight,lowB,downLeft,lowC,downRight,upLeft,upRight,1,m,,,,,0,80,80,42,,,0.5,0.7,exp,z,0,0.6228525999904377,-10.14,0,10.14,0,-7.16,-7.16,7.16,-7.16,-7.16,7.16,7.16,7.16,2,212,180,181,6,SL,2,F,29,R,2025-04-18_09h21.51.005,RewSL_SL_EEG,
ping,high,midLeft,UP,green,r,lowA,Stimuli\green_bar1.png,Stimuli\green_bar1.png,Stimuli\ping.png,midRight,lowB,downLeft,lowC,downRight,upLeft,upRight,1,z,,,,,0,81,81,9,,,0.6,0.6,exp,z,1,0.7057885999965947,-10.14,0,10.14,0,-7.16,-7.16,7.16,-7.16,-7.16,7.16,7.16,7.16,2,112,181,182,6,SL,2,F,29,R,2025-04-18_09h21.51.005,RewSL_SL_EEG,
ping,lowC,downRight,UP,green,l,lowA,Stimuli\green_bar1.png,Stimuli\green_bar1.png,Stimuli\ping.png,midRight,lowB,downLeft,high,midLeft,upLeft,upRight,1,z,,,,,0,82,82,85,,,0.5,0.7,exp,m,0,1.2558009999920614,7.16,-7.16,10.14,0,-7.16,-7.16,-10.14,0,-7.16,7.16,7.16,7.16,2,142,182,183,6,SL,2,F,29,R,2025-04-18_09h21.51.005,RewSL_SL_EEG,
ping,lowC,downRight,DOWN,green,l,lowA,Stimuli\green_bar1.png,Stimuli\green_bar1.png,Stimuli\ping.png,midRight,lowB,downLeft,high,midLeft,upLeft,upRight,1,m,,,,,0,83,83,87,,,0.5,0.7,exp,m,1,0.7642013000004226,7.16,-7.16,10.14,0,-7.16,-7.16,-10.14,0,-7.16,7.16,7.16,7.16,2,242,183,184,6,SL,2,F,29,R,2025-04-18_09h21.51.005,RewSL_SL_EEG,
ping,high,midLeft,DOWN,red,l,lowA,Stimuli\red_bar1.png,Stimuli\red_bar1.png,Stimuli\ping.png,midRight,lowB,downLeft,lowC,downRight,upLeft,upRight,1,m,,,,,0,84,84,6,,,0.4,0.8,exp,m,1,0.6064238000108162,-10.14,0,10.14,0,-7.16,-7.16,7.16,-7.16,-7.16,7.16,7.16,7.16,2,212,184,185,6,SL,2,F,29,R,2025-04-18_09h21.51.005,RewSL_SL_EEG,
ping,lowA,midRight,UP,green,l,high,Stimuli\green_bar1.png,Stimuli\green_bar1.png,Stimuli\ping.png,midLeft,lowB,downLeft,lowC,downRight,upLeft,upRight,1,z,,,,,0,85,85,53,,,0.5,0.7,exp,m,0,1.172416000001249,10.14,0,-10.14,0,-7.16,-7.16,7.16,-7.16,-7.16,7.16,7.16,7.16,2,122,185,186,6,SL,2,F,29,R,2025-04-18_09h21.51.005,RewSL_SL_EEG,
ping,lowA,midRight,DOWN,green,l,high,Stimuli\green_bar1.png,Stimuli\green_bar1.png,Stimuli\ping.png,midLeft,lowB,downLeft,lowC,downRight,upLeft,upRight,1,m,,,,,0,86,86,55,,,0.6,0.8,exp,m,1,0.6603242999990471,10.14,0,-10.14,0,-7.16,-7.16,7.16,-7.16,-7.16,7.16,7.16,7.16,2,222,186,187,6,SL,2,F,29,R,2025-04-18_09h21.51.005,RewSL_SL_EEG,
ping,lowB,downLeft,DOWN,green,l,lowA,Stimuli\green_bar1.png,Stimuli\green_bar1.png,Stimuli\ping.png,midRight,high,midLeft,lowC,downRight,upLeft,upRight,1,m,,,,,0,87,87,71,,,0.4,0.8,exp,m,1,0.6819467000022996,-7.16,-7.16,10.14,0,-10.14,0,7.16,-7.16,-7.16,7.16,7.16,7.16,2,232,187,188,6,SL,2,F,29,R,2025-04-18_09h21.51.005,RewSL_SL_EEG,
ping,high,midLeft,DOWN,red,r,lowA,Stimuli\red_bar1.png,Stimuli\red_bar1.png,Stimuli\ping.png,midRight,lowB,downLeft,lowC,downRight,upLeft,upRight,1,m,,,,,0,88,88,26,,,0.5,0.8,exp,m,1,0.6024448999960441,-10.14,0,10.14,0,-7.16,-7.16,7.16,-7.16,-7.16,7.16,7.16,7.16,2,212,188,189,6,SL,2,F,29,R,2025-04-18_09h21.51.005,RewSL_SL_EEG,
ping,high,midLeft,DOWN,red,l,lowA,Stimuli\red_bar1.png,Stimuli\red_bar1.png,Stimuli\ping.png,midRight,lowB,downLeft,lowC,downRight,upLeft,upRight,1,m,,,,,0,89,89,38,,,0.4,0.7,exp,m,1,0.5102218000101857,-10.14,0,10.14,0,-7.16,-7.16,7.16,-7.16,-7.16,7.16,7.16,7.16,2,212,189,190,6,SL,2,F,29,R,2025-04-18_09h21.51.005,RewSL_SL_EEG,
ping,high,midLeft,DOWN,green,l,lowA,Stimuli\green_bar1.png,Stimuli\green_bar1.png,Stimuli\ping.png,midRight,lowB,downLeft,lowC,downRight,upLeft,upRight,1,m,,,,,0,90,90,39,,,0.5,0.6,exp,m,1,0.4558932000072673,-10.14,0,10.14,0,-7.16,-7.16,7.16,-7.16,-7.16,7.16,7.16,7.16,2,212,190,191,6,SL,2,F,29,R,2025-04-18_09h21.51.005,RewSL_SL_EEG,
ping,high,midLeft,DOWN,red,r,lowA,Stimuli\red_bar1.png,Stimuli\red_bar1.png,Stimuli\ping.png,midRight,lowB,downLeft,lowC,downRight,upLeft,upRight,1,m,,,,,0,91,91,10,,,0.5,0.6,exp,m,1,0.4810356999951182,-10.14,0,10.14,0,-7.16,-7.16,7.16,-7.16,-7.16,7.16,7.16,7.16,2,212,191,192,6,SL,2,F,29,R,2025-04-18_09h21.51.005,RewSL_SL_EEG,
ping,high,midLeft,UP,green,l,lowA,Stimuli\green_bar1.png,Stimuli\green_bar1.png,Stimuli\ping.png,midRight,lowB,downLeft,lowC,downRight,upLeft,upRight,1,z,,,,,0,92,92,5,,,0.5,0.8,exp,z,1,0.5311727999942377,-10.14,0,10.14,0,-7.16,-7.16,7.16,-7.16,-7.16,7.16,7.16,7.16,2,112,192,193,6,SL,2,F,29,R,2025-04-18_09h21.51.005,RewSL_SL_EEG,
ping,lowB,downLeft,UP,red,r,lowA,Stimuli\red_bar1.png,Stimuli\red_bar1.png,Stimuli\ping.png,midRight,high,midLeft,lowC,downRight,upLeft,upRight,1,z,,,,,0,93,93,80,,,0.4,0.8,exp,z,1,0.8678721000032965,-7.16,-7.16,10.14,0,-10.14,0,7.16,-7.16,-7.16,7.16,7.16,7.16,2,132,193,194,6,SL,2,F,29,R,2025-04-18_09h21.51.005,RewSL_SL_EEG,
ping,lowC,downRight,UP,red,l,lowA,Stimuli\red_bar1.png,Stimuli\red_bar1.png,Stimuli\ping.png,midRight,lowB,downLeft,high,midLeft,upLeft,upRight,1,z,,,,,0,94,94,92,,,0.5,0.8,exp,z,1,0.8113876999996137,7.16,-7.16,10.14,0,-7.16,-7.16,-10.14,0,-7.16,7.16,7.16,7.16,2,142,194,195,6,SL,2,F,29,R,2025-04-18_09h21.51.005,RewSL_SL_EEG,
ping,high,midLeft,UP,green,l,lowA,Stimuli\green_bar1.png,Stimuli\green_bar1.png,Stimuli\ping.png,midRight,lowB,downLeft,lowC,downRight,upLeft,upRight,1,z,,,,,0,95,95,13,,,0.5,0.7,exp,z,1,0.7020570000022417,-10.14,0,10.14,0,-7.16,-7.16,7.16,-7.16,-7.16,7.16,7.16,7.16,2,112,195,196,6,SL,2,F,29,R,2025-04-18_09h21.51.005,RewSL_SL_EEG,
ping,high,midLeft,UP,green,l,lowA,Stimuli\green_bar1.png,Stimuli\green_bar1.png,Stimuli\ping.png,midRight,lowB,downLeft,lowC,downRight,upLeft,upRight,1,z,,,,,0,96,96,45,,,0.6,0.7,exp,z,1,0.5603447999892524,-10.14,0,10.14,0,-7.16,-7.16,7.16,-7.16,-7.16,7.16,7.16,7.16,2,112,196,197,6,SL,2,F,29,R,2025-04-18_09h21.51.005,RewSL_SL_EEG,
ping,lowC,downRight,DOWN,green,r,lowA,Stimuli\green_bar1.png,Stimuli\green_bar1.png,Stimuli\ping.png,midRight,lowB,downLeft,high,midLeft,upLeft,upRight,1,m,,,,,0,97,97,91,,,0.6,0.7,exp,None,0,,7.16,-7.16,10.14,0,-7.16,-7.16,-10.14,0,-7.16,7.16,7.16,7.16,2,242,197,198,6,SL,2,F,29,R,2025-04-18_09h21.51.005,RewSL_SL_EEG,
ping,lowB,downLeft,UP,red,l,lowA,Stimuli\red_bar1.png,Stimuli\red_bar1.png,Stimuli\ping.png,midRight,high,midLeft,lowC,downRight,upLeft,upRight,1,z,,,,,0,98,98,76,,,0.4,0.8,exp,z,1,0.9684888999909163,-7.16,-7.16,10.14,0,-10.14,0,7.16,-7.16,-7.16,7.16,7.16,7.16,2,132,198,199,6,SL,2,F,29,R,2025-04-18_09h21.51.005,RewSL_SL_EEG,
ping,lowA,midRight,UP,green,r,high,Stimuli\green_bar1.png,Stimuli\green_bar1.png,Stimuli\ping.png,midLeft,lowB,downLeft,lowC,downRight,upLeft,upRight,1,z,,,,,0,99,99,65,,,0.5,0.7,exp,z,1,0.7026781999884406,10.14,0,-10.14,0,-7.16,-7.16,7.16,-7.16,-7.16,7.16,7.16,7.16,2,122,199,200,6,SL,2,F,29,R,2025-04-18_09h21.51.005,RewSL_SL_EEG,
ping,high,downLeft,DOWN,green,l,lowA,Stimuli\green_bar1.png,Stimuli\green_bar1.png,Stimuli\ping.png,downRight,lowB,midLeft,lowC,midRight,upLeft,upRight,3,m,,,,,0,0,0,3,,,0.6,0.7,exp,m,1,0.7429590000101598,-7.16,-7.16,7.16,-7.16,-10.14,0,10.14,0,-7.16,7.16,7.16,7.16,6,236,200,201,6,SL,2,F,29,R,2025-04-18_09h21.51.005,RewSL_SL_EEG,
ping,lowA,downRight,UP,red,r,high,Stimuli\red_bar1.png,Stimuli\red_bar1.png,Stimuli\ping.png,downLeft,lowB,midLeft,lowC,midRight,upLeft,upRight,3,z,,,,,0,1,1,52,,,0.4,0.8,exp,z,1,0.6643489999987651,7.16,-7.16,-7.16,-7.16,-10.14,0,10.14,0,-7.16,7.16,7.16,7.16,6,146,201,202,6,SL,2,F,29,R,2025-04-18_09h21.51.005,RewSL_SL_EEG,
ping,high,downLeft,UP,red,l,lowA,Stimuli\red_bar1.png,Stimuli\red_bar1.png,Stimuli\ping.png,downRight,lowB,midLeft,lowC,midRight,upLeft,upRight,3,z,,,,,0,2,2,48,,,0.5,0.7,exp,z,1,0.8101025999931153,-7.16,-7.16,7.16,-7.16,-10.14,0,10.14,0,-7.16,7.16,7.16,7.16,6,136,202,203,6,SL,2,F,29,R,2025-04-18_09h21.51.005,RewSL_SL_EEG,
ping,lowB,midLeft,DOWN,green,l,lowA,Stimuli\green_bar1.png,Stimuli\green_bar1.png,Stimuli\ping.png,downRight,high,downLeft,lowC,midRight,upLeft,upRight,3,m,,,,,0,3,3,83,,,0.6,0.8,exp,m,1,0.6930461000010837,-10.14,0,7.16,-7.16,-7.16,-7.16,10.14,0,-7.16,7.16,7.16,7.16,6,216,203,204,6,SL,2,F,29,R,2025-04-18_09h21.51.005,RewSL_SL_EEG,
ping,lowC,midRight,UP,green,r,lowA,Stimuli\green_bar1.png,Stimuli\green_bar1.png,Stimuli\ping.png,downRight,lowB,midLeft,high,downLeft,upLeft,upRight,3,z,,,,,0,4,4,93,,,0.6,0.7,exp,z,1,0.5645063999982085,10.14,0,7.16,-7.16,-10.14,0,-7.16,-7.16,-7.16,7.16,7.16,7.16,6,126,204,205,6,SL,2,F,29,R,2025-04-18_09h21.51.005,RewSL_SL_EEG,
ping,lowB,midLeft,DOWN,red,r,lowA,Stimuli\red_bar1.png,Stimuli\red_bar1.png,Stimuli\ping.png,downRight,high,downLeft,lowC,midRight,upLeft,upRight,3,m,,,,,0,5,5,70,,,0.4,0.7,exp,m,1,0.9570246000075713,-10.14,0,7.16,-7.16,-7.16,-7.16,10.14,0,-7.16,7.16,7.16,7.16,6,216,205,206,6,SL,2,F,29,R,2025-04-18_09h21.51.005,RewSL_SL_EEG,
ping,high,downLeft,DOWN,red,r,lowA,Stimuli\red_bar1.png,Stimuli\red_bar1.png,Stimuli\ping.png,downRight,lowB,midLeft,lowC,midRight,upLeft,upRight,3,m,,,,,0,6,6,14,,,0.5,0.7,exp,m,1,0.6393072999926517,-7.16,-7.16,7.16,-7.16,-10.14,0,10.14,0,-7.16,7.16,7.16,7.16,6,236,206,207,6,SL,2,F,29,R,2025-04-18_09h21.51.005,RewSL_SL_EEG,
ping,lowC,midRight,UP,red,l,lowA,Stimuli\red_bar1.png,Stimuli\red_bar1.png,Stimuli\ping.png,downRight,lowB,midLeft,high,downLeft,upLeft,upRight,3,z,,,,,0,7,7,96,,,0.5,0.7,exp,z,1,0.5851800999953412,10.14,0,7.16,-7.16,-10.14,0,-7.16,-7.16,-7.16,7.16,7.16,7.16,6,126,207,208,6,SL,2,F,29,R,2025-04-18_09h21.51.005,RewSL_SL_EEG,
ping,high,downLeft,DOWN,green,l,lowA,Stimuli\green_bar1.png,Stimuli\green_bar1.png,Stimuli\ping.png,downRight,lowB,midLeft,lowC,midRight,upLeft,upRight,3,m,,,,,0,8,8,27,,,0.4,0.7,exp,m,1,0.559786300000269,-7.16,-7.16,7.16,-7.16,-10.14,0,10.14,0,-7.16,7.16,7.16,7.16,6,236,208,209,6,SL,2,F,29,R,2025-04-18_09h21.51.005,RewSL_SL_EEG,
ping,lowA,downRight,UP,green,r,high,Stimuli\green_bar1.png,Stimuli\green_bar1.png,Stimuli\ping.png,downLeft,lowB,midLeft,lowC,midRight,upLeft,upRight,3,z,,,,,0,9,9,53,,,0.5,0.7,exp,m,0,0.5351803999947151,7.16,-7.16,-7.16,-7.16,-10.14,0,10.14,0,-7.16,7.16,7.16,7.16,6,146,209,210,6,SL,2,F,29,R,2025-04-18_09h21.51.005,RewSL_SL_EEG,
ping,high,downLeft,UP,red,r,lowA,Stimuli\red_bar1.png,Stimuli\red_bar1.png,Stimuli\ping.png,downRight,lowB,midLeft,lowC,midRight,upLeft,upRight,3,z,,,,,0,10,10,28,,,0.6,0.7,exp,z,1,0.6485122999874875,-7.16,-7.16,7.16,-7.16,-10.14,0,10.14,0,-7.16,7.16,7.16,7.16,6,136,210,211,6,SL,2,F,29,R,2025-04-18_09h21.51.005,RewSL_SL_EEG,
ping,lowB,midLeft,UP,red,r,lowA,Stimuli\red_bar1.png,Stimuli\red_bar1.png,Stimuli\ping.png,downRight,high,downLeft,lowC,midRight,upLeft,upRight,3,z,,,,,0,11,11,68,,,0.5,0.8,exp,z,1,0.5645192999945721,-10.14,0,7.16,-7.16,-7.16,-7.16,10.14,0,-7.16,7.16,7.16,7.16,6,116,211,212,6,SL,2,F,29,R,2025-04-18_09h21.51.005,RewSL_SL_EEG,
ping,high,downLeft,DOWN,red,r,lowA,Stimuli\red_bar1.png,Stimuli\red_bar1.png,Stimuli\ping.png,downRight,lowB,midLeft,lowC,midRight,upLeft,upRight,3,m,,,,,0,12,12,22,,,0.6,0.8,exp,m,1,0.6229306000022916,-7.16,-7.16,7.16,-7.16,-10.14,0,10.14,0,-7.16,7.16,7.16,7.16,6,236,212,213,6,SL,2,F,29,R,2025-04-18_09h21.51.005,RewSL_SL_EEG,
ping,high,downLeft,DOWN,green,r,lowA,Stimuli\green_bar1.png,Stimuli\green_bar1.png,Stimuli\ping.png,downRight,lowB,midLeft,lowC,midRight,upLeft,upRight,3,m,,,,,0,13,13,7,,,0.5,0.7,exp,m,1,0.5594186999951489,-7.16,-7.16,7.16,-7.16,-10.14,0,10.14,0,-7.16,7.16,7.16,7.16,6,236,213,214,6,SL,2,F,29,R,2025-04-18_09h21.51.005,RewSL_SL_EEG,
ping,high,downLeft,UP,green,r,lowA,Stimuli\green_bar1.png,Stimuli\green_bar1.png,Stimuli\ping.png,downRight,lowB,midLeft,lowC,midRight,upLeft,upRight,3,z,,,,,0,14,14,37,,,0.6,0.6,exp,m,0,0.8060226999950828,-7.16,-7.16,7.16,-7.16,-10.14,0,10.14,0,-7.16,7.16,7.16,7.16,6,136,214,215,6,SL,2,F,29,R,2025-04-18_09h21.51.005,RewSL_SL_EEG,
ping,lowA,downRight,DOWN,red,r,high,Stimuli\red_bar1.png,Stimuli\red_bar1.png,Stimuli\ping.png,downLeft,lowB,midLeft,lowC,midRight,upLeft,upRight,3,m,,,,,0,15,15,62,,,0.5,0.6,exp,m,1,0.6268529999942984,7.16,-7.16,-7.16,-7.16,-10.14,0,10.14,0,-7.16,7.16,7.16,7.16,6,246,215,216,6,SL,2,F,29,R,2025-04-18_09h21.51.005,RewSL_SL_EEG,
ping,high,downLeft,DOWN,green,l,lowA,Stimuli\green_bar1.png,Stimuli\green_bar1.png,Stimuli\ping.png,downRight,lowB,midLeft,lowC,midRight,upLeft,upRight,3,m,,,,,0,16,16,35,,,0.5,0.8,exp,m,1,0.6272020999895176,-7.16,-7.16,7.16,-7.16,-10.14,0,10.14,0,-7.16,7.16,7.16,7.16,6,236,216,217,6,SL,2,F,29,R,2025-04-18_09h21.51.005,RewSL_SL_EEG,
ping,lowB,midLeft,UP,green,l,lowA,Stimuli\green_bar1.png,Stimuli\green_bar1.png,Stimuli\ping.png,downRight,high,downLeft,lowC,midRight,upLeft,upRight,3,z,,,,,0,17,17,81,,,0.5,0.7,exp,z,1,0.9394893999997294,-10.14,0,7.16,-7.16,-7.16,-7.16,10.14,0,-7.16,7.16,7.16,7.16,6,116,217,218,6,SL,2,F,29,R,2025-04-18_09h21.51.005,RewSL_SL_EEG,
ping,lowA,downRight,DOWN,green,l,high,Stimuli\green_bar1.png,Stimuli\green_bar1.png,Stimuli\ping.png,downLeft,lowB,midLeft,lowC,midRight,upLeft,upRight,3,m,,,,,0,18,18,59,,,0.4,0.8,exp,m,1,0.8269335000077263,7.16,-7.16,-7.16,-7.16,-10.14,0,10.14,0,-7.16,7.16,7.16,7.16,6,246,218,219,6,SL,2,F,29,R,2025-04-18_09h21.51.005,RewSL_SL_EEG,
ping,high,downLeft,UP,red,r,lowA,Stimuli\red_bar1.png,Stimuli\red_bar1.png,Stimuli\ping.png,downRight,lowB,midLeft,lowC,midRight,upLeft,upRight,3,z,,,,,0,19,19,12,,,0.6,0.7,exp,z,1,0.5897668999969028,-7.16,-7.16,7.16,-7.16,-10.14,0,10.14,0,-7.16,7.16,7.16,7.16,6,136,219,220,6,SL,2,F,29,R,2025-04-18_09h21.51.005,RewSL_SL_EEG,
ping,lowA,downRight,UP,green,l,high,Stimuli\green_bar1.png,Stimuli\green_bar1.png,Stimuli\ping.png,downLeft,lowB,midLeft,lowC,midRight,upLeft,upRight,3,z,,,,,0,20,20,57,,,0.6,0.6,exp,z,1,1.031000100003439,7.16,-7.16,-7.16,-7.16,-10.14,0,10.14,0,-7.16,7.16,7.16,7.16,6,146,220,221,6,SL,2,F,29,R,2025-04-18_09h21.51.005,RewSL_SL_EEG,
ping,high,downLeft,UP,red,r,lowA,Stimuli\red_bar1.png,Stimuli\red_bar1.png,Stimuli\ping.png,downRight,lowB,midLeft,lowC,midRight,upLeft,upRight,3,z,,,,,0,21,21,44,,,0.4,0.7,exp,z,1,0.6850660000054631,-7.16,-7.16,7.16,-7.16,-10.14,0,10.14,0,-7.16,7.16,7.16,7.16,6,136,221,222,6,SL,2,F,29,R,2025-04-18_09h21.51.005,RewSL_SL_EEG,
ping,high,downLeft,DOWN,green,r,lowA,Stimuli\green_bar1.png,Stimuli\green_bar1.png,Stimuli\ping.png,downRight,lowB,midLeft,lowC,midRight,upLeft,upRight,3,m,,,,,0,22,22,31,,,0.5,0.7,exp,m,1,0.739519199996721,-7.16,-7.16,7.16,-7.16,-10.14,0,10.14,0,-7.16,7.16,7.16,7.16,6,236,222,223,6,SL,2,F,29,R,2025-04-18_09h21.51.005,RewSL_SL_EEG,
ping,lowC,midRight,DOWN,red,l,lowA,Stimuli\red_bar1.png,Stimuli\red_bar1.png,Stimuli\ping.png,downRight,lowB,midLeft,high,downLeft,upLeft,upRight,3,m,,,,,0,23,23,98,,,0.5,0.8,exp,m,1,0.5857550999935484,10.14,0,7.16,-7.16,-10.14,0,-7.16,-7.16,-7.16,7.16,7.16,7.16,6,226,223,224,6,SL,2,F,29,R,2025-04-18_09h21.51.005,RewSL_SL_EEG,
ping,high,downLeft,UP,green,r,lowA,Stimuli\green_bar1.png,Stimuli\green_bar1.png,Stimuli\ping.png,downRight,lowB,midLeft,lowC,midRight,upLeft,upRight,3,z,,,,,0,24,24,45,,,0.5,0.7,exp,z,1,0.6522265999956289,-7.16,-7.16,7.16,-7.16,-10.14,0,10.14,0,-7.16,7.16,7.16,7.16,6,136,224,225,6,SL,2,F,29,R,2025-04-18_09h21.51.005,RewSL_SL_EEG,
ping,lowB,midLeft,UP,green,r,lowA,Stimuli\green_bar1.png,Stimuli\green_bar1.png,Stimuli\ping.png,downRight,high,downLeft,lowC,midRight,upLeft,upRight,3,z,,,,,0,25,25,77,,,0.5,0.7,exp,z,1,0.5354723000054946,-10.14,0,7.16,-7.16,-7.16,-7.16,10.14,0,-7.16,7.16,7.16,7.16,6,116,225,226,6,SL,2,F,29,R,2025-04-18_09h21.51.005,RewSL_SL_EEG,
ping,high,downLeft,DOWN,red,l,lowA,Stimuli\red_bar1.png,Stimuli\red_bar1.png,Stimuli\ping.png,downRight,lowB,midLeft,lowC,midRight,upLeft,upRight,3,m,,,,,0,26,26,34,,,0.5,0.6,exp,m,1,0.7189284000050975,-7.16,-7.16,7.16,-7.16,-10.14,0,10.14,0,-7.16,7.16,7.16,7.16,6,236,226,227,6,SL,2,F,29,R,2025-04-18_09h21.51.005,RewSL_SL_EEG,
ping,lowB,midLeft,DOWN,red,l,lowA,Stimuli\red_bar1.png,Stimuli\red_bar1.png,Stimuli\ping.png,downRight,high,downLeft,lowC,midRight,upLeft,upRight,3,m,,,,,0,27,27,82,,,0.5,0.8,exp,m,1,0.5435876999981701,-10.14,0,7.16,-7.16,-7.16,-7.16,10.14,0,-7.16,7.16,7.16,7.16,6,216,227,228,6,SL,2,F,29,R,2025-04-18_09h21.51.005,RewSL_SL_EEG,
ping,high,downLeft,DOWN,green,l,lowA,Stimuli\green_bar1.png,Stimuli\green_bar1.png,Stimuli\ping.png,downRight,lowB,midLeft,lowC,midRight,upLeft,upRight,3,m,,,,,0,28,28,43,,,0.5,0.7,exp,m,1,0.5315395999932662,-7.16,-7.16,7.16,-7.16,-10.14,0,10.14,0,-7.16,7.16,7.16,7.16,6,236,228,229,6,SL,2,F,29,R,2025-04-18_09h21.51.005,RewSL_SL_EEG,
ping,high,downLeft,UP,green,r,lowA,Stimuli\green_bar1.png,Stimuli\green_bar1.png,Stimuli\ping.png,downRight,lowB,midLeft,lowC,midRight,upLeft,upRight,3,z,,,,,0,29,29,21,,,0.5,0.7,exp,z,1,0.5479229999909876,-7.16,-7.16,7.16,-7.16,-10.14,0,10.14,0,-7.16,7.16,7.16,7.16,6,136,229,230,6,SL,2,F,29,R,2025-04-18_09h21.51.005,RewSL_SL_EEG,
ping,high,downLeft,DOWN,red,r,lowA,Stimuli\red_bar1.png,Stimuli\red_bar1.png,Stimuli\ping.png,downRight,lowB,midLeft,lowC,midRight,upLeft,upRight,3,m,,,,,0,30,30,46,,,0.6,0.7,exp,m,1,0.5971604000078514,-7.16,-7.16,7.16,-7.16,-10.14,0,10.14,0,-7.16,7.16,7.16,7.16,6,236,230,231,6,SL,2,F,29,R,2025-04-18_09h21.51.005,RewSL_SL_EEG,
ping,high,downLeft,DOWN,green,l,lowA,Stimuli\green_bar1.png,Stimuli\green_bar1.png,Stimuli\ping.png,downRight,lowB,midLeft,lowC,midRight,upLeft,upRight,3,m,,,,,0,31,31,51,,,0.4,0.6,exp,m,1,0.5150178000039887,-7.16,-7.16,7.16,-7.16,-10.14,0,10.14,0,-7.16,7.16,7.16,7.16,6,236,231,232,6,SL,2,F,29,R,2025-04-18_09h21.51.005,RewSL_SL_EEG,
ping,high,downLeft,UP,green,l,lowA,Stimuli\green_bar1.png,Stimuli\green_bar1.png,Stimuli\ping.png,downRight,lowB,midLeft,lowC,midRight,upLeft,upRight,3,z,,,,,0,32,32,25,,,0.6,0.7,exp,z,1,0.7268366000062088,-7.16,-7.16,7.16,-7.16,-10.14,0,10.14,0,-7.16,7.16,7.16,7.16,6,136,232,233,6,SL,2,F,29,R,2025-04-18_09h21.51.005,RewSL_SL_EEG,
ping,high,downLeft,UP,green,l,lowA,Stimuli\green_bar1.png,Stimuli\green_bar1.png,Stimuli\ping.png,downRight,lowB,midLeft,lowC,midRight,upLeft,upRight,3,z,,,,,0,33,33,1,,,0.5,0.6,exp,z,1,0.6227128000027733,-7.16,-7.16,7.16,-7.16,-10.14,0,10.14,0,-7.16,7.16,7.16,7.16,6,136,233,234,6,SL,2,F,29,R,2025-04-18_09h21.51.005,RewSL_SL_EEG,
ping,high,downLeft,UP,green,r,lowA,Stimuli\green_bar1.png,Stimuli\green_bar1.png,Stimuli\ping.png,downRight,lowB,midLeft,lowC,midRight,upLeft,upRight,3,z,,,,,0,34,34,5,,,0.4,0.7,exp,z,1,0.4558315999893239,-7.16,-7.16,7.16,-7.16,-10.14,0,10.14,0,-7.16,7.16,7.16,7.16,6,136,234,235,6,SL,2,F,29,R,2025-04-18_09h21.51.005,RewSL_SL_EEG,
ping,lowA,downRight,UP,green,l,high,Stimuli\green_bar1.png,Stimuli\green_bar1.png,Stimuli\ping.png,downLeft,lowB,midLeft,lowC,midRight,upLeft,upRight,3,z,,,,,0,35,35,65,,,0.4,0.7,exp,z,1,0.7183882000099402,7.16,-7.16,-7.16,-7.16,-10.14,0,10.14,0,-7.16,7.16,7.16,7.16,6,146,235,236,6,SL,2,F,29,R,2025-04-18_09h21.51.005,RewSL_SL_EEG,
ping,lowC,midRight,DOWN,green,l,lowA,Stimuli\green_bar1.png,Stimuli\green_bar1.png,Stimuli\ping.png,downRight,lowB,midLeft,high,downLeft,upLeft,upRight,3,m,,,,,0,36,36,99,,,0.6,0.6,exp,m,1,0.43553099999553524,10.14,0,7.16,-7.16,-10.14,0,-7.16,-7.16,-7.16,7.16,7.16,7.16,6,226,236,237,6,SL,2,F,29,R,2025-04-18_09h21.51.005,RewSL_SL_EEG,
ping,high,downLeft,DOWN,green,r,lowA,Stimuli\green_bar1.png,Stimuli\green_bar1.png,Stimuli\ping.png,downRight,lowB,midLeft,lowC,midRight,upLeft,upRight,3,m,,,,,0,37,37,23,,,0.5,0.7,exp,z,0,0.4688482000055956,-7.16,-7.16,7.16,-7.16,-10.14,0,10.14,0,-7.16,7.16,7.16,7.16,6,236,237,238,6,SL,2,F,29,R,2025-04-18_09h21.51.005,RewSL_SL_EEG,
ping,lowB,midLeft,DOWN,red,r,lowA,Stimuli\red_bar1.png,Stimuli\red_bar1.png,Stimuli\ping.png,downRight,high,downLeft,lowC,midRight,upLeft,upRight,3,m,,,,,0,38,38,78,,,0.5,0.7,exp,m,1,0.5185608000028878,-10.14,0,7.16,-7.16,-7.16,-7.16,10.14,0,-7.16,7.16,7.16,7.16,6,216,238,239,6,SL,2,F,29,R,2025-04-18_09h21.51.005,RewSL_SL_EEG,
ping,high,downLeft,UP,green,l,lowA,Stimuli\green_bar1.png,Stimuli\green_bar1.png,Stimuli\ping.png,downRight,lowB,midLeft,lowC,midRight,upLeft,upRight,3,z,,,,,0,39,39,33,,,0.5,0.8,exp,z,1,0.8811819000111427,-7.16,-7.16,7.16,-7.16,-10.14,0,10.14,0,-7.16,7.16,7.16,7.16,6,136,239,240,6,SL,2,F,29,R,2025-04-18_09h21.51.005,RewSL_SL_EEG,
ping,high,downLeft,UP,green,l,lowA,Stimuli\green_bar1.png,Stimuli\green_bar1.png,Stimuli\ping.png,downRight,lowB,midLeft,lowC,midRight,upLeft,upRight,3,z,,,,,0,40,40,49,,,0.6,0.6,exp,z,1,0.514960999993491,-7.16,-7.16,7.16,-7.16,-10.14,0,10.14,0,-7.16,7.16,7.16,7.16,6,136,240,241,6,SL,2,F,29,R,2025-04-18_09h21.51.005,RewSL_SL_EEG,
ping,lowC,midRight,DOWN,red,r,lowA,Stimuli\red_bar1.png,Stimuli\red_bar1.png,Stimuli\ping.png,downRight,lowB,midLeft,high,downLeft,upLeft,upRight,3,m,,,,,0,41,41,94,,,0.5,0.8,exp,m,1,0.5358113999973284,10.14,0,7.16,-7.16,-10.14,0,-7.16,-7.16,-7.16,7.16,7.16,7.16,6,226,241,242,6,SL,2,F,29,R,2025-04-18_09h21.51.005,RewSL_SL_EEG,
ping,high,downLeft,UP,green,l,lowA,Stimuli\green_bar1.png,Stimuli\green_bar1.png,Stimuli\ping.png,downRight,lowB,midLeft,lowC,midRight,upLeft,upRight,3,z,,,,,0,42,42,41,,,0.6,0.7,exp,z,1,1.0475132999999914,-7.16,-7.16,7.16,-7.16,-10.14,0,10.14,0,-7.16,7.16,7.16,7.16,6,136,242,243,6,SL,2,F,29,R,2025-04-18_09h21.51.005,RewSL_SL_EEG,
ping,high,downLeft,DOWN,green,r,lowA,Stimuli\green_bar1.png,Stimuli\green_bar1.png,Stimuli\ping.png,downRight,lowB,midLeft,lowC,midRight,upLeft,upRight,3,m,,,,,0,43,43,39,,,0.6,0.7,exp,m,1,0.7233625999942888,-7.16,-7.16,7.16,-7.16,-10.14,0,10.14,0,-7.16,7.16,7.16,7.16,6,236,243,244,6,SL,2,F,29,R,2025-04-18_09h21.51.005,RewSL_SL_EEG,
ping,high,downLeft,UP,red,l,lowA,Stimuli\red_bar1.png,Stimuli\red_bar1.png,Stimuli\ping.png,downRight,lowB,midLeft,lowC,midRight,upLeft,upRight,3,z,,,,,0,44,44,8,,,0.4,0.6,exp,z,1,0.5646847000025446,-7.16,-7.16,7.16,-7.16,-10.14,0,10.14,0,-7.16,7.16,7.16,7.16,6,136,244,245,6,SL,2,F,29,R,2025-04-18_09h21.51.005,RewSL_SL_EEG,
ping,lowB,midLeft,UP,red,l,lowA,Stimuli\red_bar1.png,Stimuli\red_bar1.png,Stimuli\ping.png,downRight,high,downLeft,lowC,midRight,upLeft,upRight,3,z,,,,,0,45,45,72,,,0.4,0.7,exp,z,1,0.6729646999883698,-10.14,0,7.16,-7.16,-7.16,-7.16,10.14,0,-7.16,7.16,7.16,7.16,6,116,245,246,6,SL,2,F,29,R,2025-04-18_09h21.51.005,RewSL_SL_EEG,
ping,high,downLeft,DOWN,green,l,lowA,Stimuli\green_bar1.png,Stimuli\green_bar1.png,Stimuli\ping.png,downRight,lowB,midLeft,lowC,midRight,upLeft,upRight,3,m,,,,,0,46,46,11,,,0.4,0.7,exp,m,1,0.43968799999856856,-7.16,-7.16,7.16,-7.16,-10.14,0,10.14,0,-7.16,7.16,7.16,7.16,6,236,246,247,6,SL,2,F,29,R,2025-04-18_09h21.51.005,RewSL_SL_EEG,
ping,lowB,midLeft,UP,red,r,lowA,Stimuli\red_bar1.png,Stimuli\red_bar1.png,Stimuli\ping.png,downRight,high,downLeft,lowC,midRight,upLeft,upRight,3,z,,,,,0,47,47,76,,,0.4,0.7,exp,z,1,0.4937746999930823,-10.14,0,7.16,-7.16,-7.16,-7.16,10.14,0,-7.16,7.16,7.16,7.16,6,116,247,248,6,SL,2,F,29,R,2025-04-18_09h21.51.005,RewSL_SL_EEG,
ping,lowA,downRight,DOWN,red,l,high,Stimuli\red_bar1.png,Stimuli\red_bar1.png,Stimuli\ping.png,downLeft,lowB,midLeft,lowC,midRight,upLeft,upRight,3,m,,,,,0,48,48,58,,,0.6,0.8,exp,m,1,0.7273674000025494,7.16,-7.16,-7.16,-7.16,-10.14,0,10.14,0,-7.16,7.16,7.16,7.16,6,246,248,249,6,SL,2,F,29,R,2025-04-18_09h21.51.005,RewSL_SL_EEG,
ping,lowC,midRight,UP,green,r,lowA,Stimuli\green_bar1.png,Stimuli\green_bar1.png,Stimuli\ping.png,downRight,lowB,midLeft,high,downLeft,upLeft,upRight,3,z,,,,,0,49,49,85,,,0.4,0.8,exp,m,0,0.9935818000085419,10.14,0,7.16,-7.16,-10.14,0,-7.16,-7.16,-7.16,7.16,7.16,7.16,6,126,249,250,6,SL,2,F,29,R,2025-04-18_09h21.51.005,RewSL_SL_EEG,
ping,high,downLeft,DOWN,red,r,lowA,Stimuli\red_bar1.png,Stimuli\red_bar1.png,Stimuli\ping.png,downRight,lowB,midLeft,lowC,midRight,upLeft,upRight,3,m,,,,,0,50,50,6,,,0.4,0.7,exp,z,0,0.631258000008529,-7.16,-7.16,7.16,-7.16,-10.14,0,10.14,0,-7.16,7.16,7.16,7.16,6,236,250,251,6,SL,2,F,29,R,2025-04-18_09h21.51.005,RewSL_SL_EEG,
ping,lowC,midRight,UP,red,l,lowA,Stimuli\red_bar1.png,Stimuli\red_bar1.png,Stimuli\ping.png,downRight,lowB,midLeft,high,downLeft,upLeft,upRight,3,z,,,,,0,51,51,88,,,0.5,0.7,exp,z,1,0.8889522999961628,10.14,0,7.16,-7.16,-10.14,0,-7.16,-7.16,-7.16,7.16,7.16,7.16,6,126,251,252,6,SL,2,F,29,R,2025-04-18_09h21.51.005,RewSL_SL_EEG,
ping,high,downLeft,UP,green,r,lowA,Stimuli\green_bar1.png,Stimuli\green_bar1.png,Stimuli\ping.png,downRight,lowB,midLeft,lowC,midRight,upLeft,upRight,3,z,,,,,0,52,52,13,,,0.6,0.7,exp,z,1,0.6941538999963086,-7.16,-7.16,7.16,-7.16,-10.14,0,10.14,0,-7.16,7.16,7.16,7.16,6,136,252,253,6,SL,2,F,29,R,2025-04-18_09h21.51.005,RewSL_SL_EEG,
ping,high,downLeft,UP,green,l,lowA,Stimuli\green_bar1.png,Stimuli\green_bar1.png,Stimuli\ping.png,downRight,lowB,midLeft,lowC,midRight,upLeft,upRight,3,z,,,,,0,53,53,9,,,0.5,0.7,exp,z,1,0.6189714000065578,-7.16,-7.16,7.16,-7.16,-10.14,0,10.14,0,-7.16,7.16,7.16,7.16,6,136,253,254,6,SL,2,F,29,R,2025-04-18_09h21.51.005,RewSL_SL_EEG,
ping,lowB,midLeft,DOWN,green,r,lowA,Stimuli\green_bar1.png,Stimuli\green_bar1.png,Stimuli\ping.png,downRight,high,downLeft,lowC,midRight,upLeft,upRight,3,m,,,,,0,54,54,79,,,0.5,0.8,exp,m,1,0.5686385000008158,-10.14,0,7.16,-7.16,-7.16,-7.16,10.14,0,-7.16,7.16,7.16,7.16,6,216,254,255,6,SL,2,F,29,R,2025-04-18_09h21.51.005,RewSL_SL_EEG,
ping,high,downLeft,UP,green,l,lowA,Stimuli\green_bar1.png,Stimuli\green_bar1.png,Stimuli\ping.png,downRight,lowB,midLeft,lowC,midRight,upLeft,upRight,3,z,,,,,0,55,55,17,,,0.4,0.6,exp,z,1,0.7394490000006044,-7.16,-7.16,7.16,-7.16,-10.14,0,10.14,0,-7.16,7.16,7.16,7.16,6,136,255,256,6,SL,2,F,29,R,2025-04-18_09h21.51.005,RewSL_SL_EEG,
ping,high,downLeft,DOWN,red,l,lowA,Stimuli\red_bar1.png,Stimuli\red_bar1.png,Stimuli\ping.png,downRight,lowB,midLeft,lowC,midRight,upLeft,upRight,3,m,,,,,0,56,56,2,,,0.4,0.8,exp,m,1,0.5688582000002498,-7.16,-7.16,7.16,-7.16,-10.14,0,10.14,0,-7.16,7.16,7.16,7.16,6,236,256,257,6,SL,2,F,29,R,2025-04-18_09h21.51.005,RewSL_SL_EEG,
ping,high,downLeft,UP,red,l,lowA,Stimuli\red_bar1.png,Stimuli\red_bar1.png,Stimuli\ping.png,downRight,lowB,midLeft,lowC,midRight,upLeft,upRight,3,z,,,,,0,57,57,16,,,0.6,0.7,exp,z,1,0.7853543999954127,-7.16,-7.16,7.16,-7.16,-10.14,0,10.14,0,-7.16,7.16,7.16,7.16,6,136,257,258,6,SL,2,F,29,R,2025-04-18_09h21.51.005,RewSL_SL_EEG,
ping,high,downLeft,DOWN,red,r,lowA,Stimuli\red_bar1.png,Stimuli\red_bar1.png,Stimuli\ping.png,downRight,lowB,midLeft,lowC,midRight,upLeft,upRight,3,m,,,,,0,58,58,38,,,0.6,0.8,exp,m,1,0.560467699993751,-7.16,-7.16,7.16,-7.16,-10.14,0,10.14,0,-7.16,7.16,7.16,7.16,6,236,258,259,6,SL,2,F,29,R,2025-04-18_09h21.51.005,RewSL_SL_EEG,
ping,lowC,midRight,UP,green,l,lowA,Stimuli\green_bar1.png,Stimuli\green_bar1.png,Stimuli\ping.png,downRight,lowB,midLeft,high,downLeft,upLeft,upRight,3,z,,,,,0,59,59,97,,,0.6,0.6,exp,None,0,,10.14,0,7.16,-7.16,-10.14,0,-7.16,-7.16,-7.16,7.16,7.16,7.16,6,126,259,260,6,SL,2,F,29,R,2025-04-18_09h21.51.005,RewSL_SL_EEG,
ping,lowA,downRight,DOWN,green,r,high,Stimuli\green_bar1.png,Stimuli\green_bar1.png,Stimuli\ping.png,downLeft,lowB,midLeft,lowC,midRight,upLeft,upRight,3,m,,,,,0,60,60,55,,,0.5,0.6,exp,z,0,0.8143311999883736,7.16,-7.16,-7.16,-7.16,-10.14,0,10.14,0,-7.16,7.16,7.16,7.16,6,246,260,261,6,SL,2,F,29,R,2025-04-18_09h21.51.005,RewSL_SL_EEG,
ping,high,downLeft,UP,red,r,lowA,Stimuli\red_bar1.png,Stimuli\red_bar1.png,Stimuli\ping.png,downRight,lowB,midLeft,lowC,midRight,upLeft,upRight,3,z,,,,,0,61,61,20,,,0.5,0.6,exp,z,1,0.8564404000062495,-7.16,-7.16,7.16,-7.16,-10.14,0,10.14,0,-7.16,7.16,7.16,7.16,6,136,261,262,6,SL,2,F,29,R,2025-04-18_09h21.51.005,RewSL_SL_EEG,
ping,lowA,downRight,DOWN,green,r,high,Stimuli\green_bar1.png,Stimuli\green_bar1.png,Stimuli\ping.png,downLeft,lowB,midLeft,lowC,midRight,upLeft,upRight,3,m,,,,,0,62,62,63,,,0.6,0.8,exp,m,1,1.2690551999985473,7.16,-7.16,-7.16,-7.16,-10.14,0,10.14,0,-7.16,7.16,7.16,7.16,6,246,262,263,6,SL,2,F,29,R,2025-04-18_09h21.51.005,RewSL_SL_EEG,
ping,lowA,downRight,UP,red,r,high,Stimuli\red_bar1.png,Stimuli\red_bar1.png,Stimuli\ping.png,downLeft,lowB,midLeft,lowC,midRight,upLeft,upRight,3,z,,,,,0,63,63,60,,,0.5,0.7,exp,z,1,1.1601502999983495,7.16,-7.16,-7.16,-7.16,-10.14,0,10.14,0,-7.16,7.16,7.16,7.16,6,146,263,264,6,SL,2,F,29,R,2025-04-18_09h21.51.005,RewSL_SL_EEG,
ping,lowC,midRight,DOWN,green,r,lowA,Stimuli\green_bar1.png,Stimuli\green_bar1.png,Stimuli\ping.png,downRight,lowB,midLeft,high,downLeft,upLeft,upRight,3,m,,,,,0,64,64,95,,,0.5,0.8,exp,m,1,0.6018094000028213,10.14,0,7.16,-7.16,-10.14,0,-7.16,-7.16,-7.16,7.16,7.16,7.16,6,226,264,265,6,SL,2,F,29,R,2025-04-18_09h21.51.005,RewSL_SL_EEG,
ping,lowC,midRight,DOWN,green,r,lowA,Stimuli\green_bar1.png,Stimuli\green_bar1.png,Stimuli\ping.png,downRight,lowB,midLeft,high,downLeft,upLeft,upRight,3,m,,,,,0,65,65,87,,,0.4,0.8,exp,m,1,0.4734783000021707,10.14,0,7.16,-7.16,-10.14,0,-7.16,-7.16,-7.16,7.16,7.16,7.16,6,226,265,266,6,SL,2,F,29,R,2025-04-18_09h21.51.005,RewSL_SL_EEG,
ping,lowA,downRight,DOWN,red,r,high,Stimuli\red_bar1.png,Stimuli\red_bar1.png,Stimuli\ping.png,downLeft,lowB,midLeft,lowC,midRight,upLeft,upRight,3,m,,,,,0,66,66,54,,,0.4,0.7,exp,m,1,0.501518400007626,7.16,-7.16,-7.16,-7.16,-10.14,0,10.14,0,-7.16,7.16,7.16,7.16,6,246,266,267,6,SL,2,F,29,R,2025-04-18_09h21.51.005,RewSL_SL_EEG,
ping,high,downLeft,DOWN,red,l,lowA,Stimuli\red_bar1.png,Stimuli\red_bar1.png,Stimuli\ping.png,downRight,lowB,midLeft,lowC,midRight,upLeft,upRight,3,m,,,,,0,67,67,42,,,0.4,0.8,exp,m,1,0.8097975999990012,-7.16,-7.16,7.16,-7.16,-10.14,0,10.14,0,-7.16,7.16,7.16,7.16,6,236,267,268,6,SL,2,F,29,R,2025-04-18_09h21.51.005,RewSL_SL_EEG,
ping,lowC,midRight,UP,green,l,lowA,Stimuli\green_bar1.png,Stimuli\green_bar1.png,Stimuli\ping.png,downRight,lowB,midLeft,high,downLeft,upLeft,upRight,3,z,,,,,0,68,68,89,,,0.4,0.7,exp,m,0,0.5473111000028439,10.14,0,7.16,-7.16,-10.14,0,-7.16,-7.16,-7.16,7.16,7.16,7.16,6,126,268,269,6,SL,2,F,29,R,2025-04-18_09h21.51.005,RewSL_SL_EEG,
ping,lowB,midLeft,UP,green,l,lowA,Stimuli\green_bar1.png,Stimuli\green_bar1.png,Stimuli\ping.png,downRight,high,downLeft,lowC,midRight,upLeft,upRight,3,z,,,,,0,69,69,73,,,0.5,0.8,exp,z,1,0.8186738999938825,-10.14,0,7.16,-7.16,-7.16,-7.16,10.14,0,-7.16,7.16,7.16,7.16,6,116,269,270,6,SL,2,F,29,R,2025-04-18_09h21.51.005,RewSL_SL_EEG,
ping,lowB,midLeft,UP,green,r,lowA,Stimuli\green_bar1.png,Stimuli\green_bar1.png,Stimuli\ping.png,downRight,high,downLeft,lowC,midRight,upLeft,upRight,3,z,,,,,0,70,70,69,,,0.5,0.8,exp,z,1,0.5181512999988627,-10.14,0,7.16,-7.16,-7.16,-7.16,10.14,0,-7.16,7.16,7.16,7.16,6,116,270,271,6,SL,2,F,29,R,2025-04-18_09h21.51.005,RewSL_SL_EEG,
ping,lowC,midRight,DOWN,red,r,lowA,Stimuli\red_bar1.png,Stimuli\red_bar1.png,Stimuli\ping.png,downRight,lowB,midLeft,high,downLeft,upLeft,upRight,3,m,,,,,0,71,71,86,,,0.4,0.8,exp,m,1,0.4394421000033617,10.14,0,7.16,-7.16,-10.14,0,-7.16,-7.16,-7.16,7.16,7.16,7.16,6,226,271,272,6,SL,2,F,29,R,2025-04-18_09h21.51.005,RewSL_SL_EEG,
ping,lowA,downRight,UP,red,l,high,Stimuli\red_bar1.png,Stimuli\red_bar1.png,Stimuli\ping.png,downLeft,lowB,midLeft,lowC,midRight,upLeft,upRight,3,z,,,,,0,72,72,56,,,0.5,0.7,exp,m,0,0.5059516999899643,7.16,-7.16,-7.16,-7.16,-10.14,0,10.14,0,-7.16,7.16,7.16,7.16,6,146,272,273,6,SL,2,F,29,R,2025-04-18_09h21.51.005,RewSL_SL_EEG,
ping,high,downLeft,DOWN,green,r,lowA,Stimuli\green_bar1.png,Stimuli\green_bar1.png,Stimuli\ping.png,downRight,lowB,midLeft,lowC,midRight,upLeft,upRight,3,m,,,,,0,73,73,47,,,0.5,0.6,exp,m,1,0.5281698000035249,-7.16,-7.16,7.16,-7.16,-10.14,0,10.14,0,-7.16,7.16,7.16,7.16,6,236,273,274,6,SL,2,F,29,R,2025-04-18_09h21.51.005,RewSL_SL_EEG,
ping,high,downLeft,UP,green,r,lowA,Stimuli\green_bar1.png,Stimuli\green_bar1.png,Stimuli\ping.png,downRight,lowB,midLeft,lowC,midRight,upLeft,upRight,3,z,,,,,0,74,74,29,,,0.6,0.8,exp,z,1,0.6185469000047306,-7.16,-7.16,7.16,-7.16,-10.14,0,10.14,0,-7.16,7.16,7.16,7.16,6,136,274,275,6,SL,2,F,29,R,2025-04-18_09h21.51.005,RewSL_SL_EEG,
ping,lowB,midLeft,DOWN,green,l,lowA,Stimuli\green_bar1.png,Stimuli\green_bar1.png,Stimuli\ping.png,downRight,high,downLeft,lowC,midRight,upLeft,upRight,3,m,,,,,0,75,75,75,,,0.5,0.7,exp,m,1,0.6353052000049502,-10.14,0,7.16,-7.16,-7.16,-7.16,10.14,0,-7.16,7.16,7.16,7.16,6,216,275,276,6,SL,2,F,29,R,2025-04-18_09h21.51.005,RewSL_SL_EEG,
ping,high,downLeft,DOWN,red,r,lowA,Stimuli\red_bar1.png,Stimuli\red_bar1.png,Stimuli\ping.png,downRight,lowB,midLeft,lowC,midRight,upLeft,upRight,3,m,,,,,0,76,76,30,,,0.4,0.7,exp,m,1,0.5226833000051556,-7.16,-7.16,7.16,-7.16,-10.14,0,10.14,0,-7.16,7.16,7.16,7.16,6,236,276,277,6,SL,2,F,29,R,2025-04-18_09h21.51.005,RewSL_SL_EEG,
ping,lowA,downRight,DOWN,red,l,high,Stimuli\red_bar1.png,Stimuli\red_bar1.png,Stimuli\ping.png,downLeft,lowB,midLeft,lowC,midRight,upLeft,upRight,3,m,,,,,0,77,77,66,,,0.5,0.6,exp,m,1,0.9105930000077933,7.16,-7.16,-7.16,-7.16,-10.14,0,10.14,0,-7.16,7.16,7.16,7.16,6,246,277,278,6,SL,2,F,29,R,2025-04-18_09h21.51.005,RewSL_SL_EEG,
ping,lowA,downRight,UP,red,l,high,Stimuli\red_bar1.png,Stimuli\red_bar1.png,Stimuli\ping.png,downLeft,lowB,midLeft,lowC,midRight,upLeft,upRight,3,z,,,,,0,78,78,64,,,0.6,0.7,exp,z,1,1.06986030000553,7.16,-7.16,-7.16,-7.16,-10.14,0,10.14,0,-7.16,7.16,7.16,7.16,6,146,278,279,6,SL,2,F,29,R,2025-04-18_09h21.51.005,RewSL_SL_EEG,
ping,high,downLeft,DOWN,green,r,lowA,Stimuli\green_bar1.png,Stimuli\green_bar1.png,Stimuli\ping.png,downRight,lowB,midLeft,lowC,midRight,upLeft,upRight,3,m,,,,,0,79,79,15,,,0.5,0.7,exp,m,1,1.1023830000049202,-7.16,-7.16,7.16,-7.16,-10.14,0,10.14,0,-7.16,7.16,7.16,7.16,6,236,279,280,6,SL,2,F,29,R,2025-04-18_09h21.51.005,RewSL_SL_EEG,
ping,high,downLeft,DOWN,green,l,lowA,Stimuli\green_bar1.png,Stimuli\green_bar1.png,Stimuli\ping.png,downRight,lowB,midLeft,lowC,midRight,upLeft,upRight,3,m,,,,,0,80,80,19,,,0.5,0.8,exp,m,1,0.5435436999978265,-7.16,-7.16,7.16,-7.16,-10.14,0,10.14,0,-7.16,7.16,7.16,7.16,6,236,280,281,6,SL,2,F,29,R,2025-04-18_09h21.51.005,RewSL_SL_EEG,
ping,lowC,midRight,DOWN,green,l,lowA,Stimuli\green_bar1.png,Stimuli\green_bar1.png,Stimuli\ping.png,downRight,lowB,midLeft,high,downLeft,upLeft,upRight,3,m,,,,,0,81,81,91,,,0.4,0.8,exp,m,1,0.5443113999936031,10.14,0,7.16,-7.16,-10.14,0,-7.16,-7.16,-7.16,7.16,7.16,7.16,6,226,281,282,6,SL,2,F,29,R,2025-04-18_09h21.51.005,RewSL_SL_EEG,
ping,high,downLeft,DOWN,red,l,lowA,Stimuli\red_bar1.png,Stimuli\red_bar1.png,Stimuli\ping.png,downRight,lowB,midLeft,lowC,midRight,upLeft,upRight,3,m,,,,,0,82,82,50,,,0.4,0.7,exp,m,1,0.5259905999992043,-7.16,-7.16,7.16,-7.16,-10.14,0,10.14,0,-7.16,7.16,7.16,7.16,6,236,282,283,6,SL,2,F,29,R,2025-04-18_09h21.51.005,RewSL_SL_EEG,
ping,high,downLeft,DOWN,red,l,lowA,Stimuli\red_bar1.png,Stimuli\red_bar1.png,Stimuli\ping.png,downRight,lowB,midLeft,lowC,midRight,upLeft,upRight,3,m,,,,,0,83,83,26,,,0.6,0.6,exp,m,1,0.5140132999949856,-7.16,-7.16,7.16,-7.16,-10.14,0,10.14,0,-7.16,7.16,7.16,7.16,6,236,283,284,6,SL,2,F,29,R,2025-04-18_09h21.51.005,RewSL_SL_EEG,
ping,high,downLeft,UP,red,r,lowA,Stimuli\red_bar1.png,Stimuli\red_bar1.png,Stimuli\ping.png,downRight,lowB,midLeft,lowC,midRight,upLeft,upRight,3,z,,,,,0,84,84,36,,,0.6,0.8,exp,z,1,0.5557299999927636,-7.16,-7.16,7.16,-7.16,-10.14,0,10.14,0,-7.16,7.16,7.16,7.16,6,136,284,285,6,SL,2,F,29,R,2025-04-18_09h21.51.005,RewSL_SL_EEG,
