trial_type,t_frequency,targetPos,Gap,arrayColor,targetOri,f1_frequency,TargetFile,stimuliFile,pingFile,f1_pos,f2_frequency,f2_pos,f3_frequency,f3_pos,f4_pos,f5_pos,Rlblock,Reward,corrAns,trials_p.thisRepN,trials_p.thisTrialN,trials_p.thisN,trials_p.thisIndex,trials_e.thisRepN,trials_e.thisTrialN,trials_e.thisN,trials_e.thisIndex,thisRow.t,notes,FIX,PINGdur,epoch,key_resp.keys,key_resp.corr,key_resp.rt,targetX,targetY,filler1X,filler1Y,filler2X,filler2Y,filler3X,filler3Y,filler4X,filler4Y,filler5X,filler5Y,pingID,ID,rewID,reward_sum,completed_trials,trial_count,participant,learning,session_nr,gender,age,handedness,date,expName,
ping,lowB,downLeft,DOWN,red,r,lowA,Stimuli\red_bar1.png,Stimuli\red_bar1.png,Stimuli\ping.png,midRight,high,midLeft,lowC,downRight,upLeft,upRight,1,rew_low,m,0,0,0,10,,,,,,,0.5,0.7,practice,z,0,0.9210682999982964,-7.16,-7.16,10.14,0,-10.14,0,7.16,-7.16,-7.16,7.16,7.16,7.16,2,232,30,0,,,11,RL,2,F,23,R,2025-05-13_09h54.34.207,RewSL_RL_EEG,
ping,lowB,downLeft,DOWN,green,r,lowA,Stimuli\green_bar1.png,Stimuli\green_bar1.png,Stimuli\ping.png,midRight,high,midLeft,lowC,downRight,upLeft,upRight,1,rew_low,m,0,1,1,11,,,,,,,0.5,0.7,practice,z,0,0.8379681000078563,-7.16,-7.16,10.14,0,-10.14,0,7.16,-7.16,-7.16,7.16,7.16,7.16,2,232,30,0,,,11,RL,2,F,23,R,2025-05-13_09h54.34.207,RewSL_RL_EEG,
ping,lowA,midRight,DOWN,green,l,high,Stimuli\green_bar1.png,Stimuli\green_bar1.png,Stimuli\ping.png,midLeft,lowB,downLeft,lowC,downRight,upLeft,upRight,1,rew_low,m,0,2,2,5,,,,,,,0.4,0.7,practice,m,1,0.8699848999967799,10.14,0,-10.14,0,-7.16,-7.16,7.16,-7.16,-7.16,7.16,7.16,7.16,2,222,30,1,,,11,RL,2,F,23,R,2025-05-13_09h54.34.207,RewSL_RL_EEG,
ping,lowB,downLeft,UP,red,r,lowA,Stimuli\red_bar1.png,Stimuli\red_bar1.png,Stimuli\ping.png,midRight,high,midLeft,lowC,downRight,upLeft,upRight,1,rew_low,z,0,3,3,8,,,,,,,0.5,0.8,practice,z,1,0.8121105000027455,-7.16,-7.16,10.14,0,-10.14,0,7.16,-7.16,-7.16,7.16,7.16,7.16,2,132,30,2,,,11,RL,2,F,23,R,2025-05-13_09h54.34.207,RewSL_RL_EEG,
ping,high,midLeft,UP,red,l,lowA,Stimuli\red_bar1.png,Stimuli\red_bar1.png,Stimuli\ping.png,midRight,lowB,downLeft,lowC,downRight,upLeft,upRight,1,rew_high,z,0,4,4,0,,,,,,,0.5,0.8,practice,m,0,0.821691400007694,-10.14,0,10.14,0,-7.16,-7.16,7.16,-7.16,-7.16,7.16,7.16,7.16,2,112,31,2,,,11,RL,2,F,23,R,2025-05-13_09h54.34.207,RewSL_RL_EEG,
ping,high,midLeft,DOWN,green,l,lowA,Stimuli\green_bar1.png,Stimuli\green_bar1.png,Stimuli\ping.png,midRight,lowB,downLeft,lowC,downRight,upLeft,upRight,1,rew_high,m,0,5,5,3,,,,,,,0.6,0.6,practice,z,0,0.8961895999964327,-10.14,0,10.14,0,-7.16,-7.16,7.16,-7.16,-7.16,7.16,7.16,7.16,2,212,31,2,,,11,RL,2,F,23,R,2025-05-13_09h54.34.207,RewSL_RL_EEG,
ping,lowC,downRight,UP,green,l,lowA,Stimuli\green_bar1.png,Stimuli\green_bar1.png,Stimuli\ping.png,midRight,lowB,downLeft,high,midLeft,upLeft,upRight,1,rew_low,z,0,6,6,15,,,,,,,0.5,0.8,practice,m,0,1.0597706000116887,7.16,-7.16,10.14,0,-7.16,-7.16,-10.14,0,-7.16,7.16,7.16,7.16,2,142,30,2,,,11,RL,2,F,23,R,2025-05-13_09h54.34.207,RewSL_RL_EEG,
ping,lowB,downLeft,UP,green,r,lowA,Stimuli\green_bar1.png,Stimuli\green_bar1.png,Stimuli\ping.png,midRight,high,midLeft,lowC,downRight,upLeft,upRight,1,rew_low,z,0,7,7,9,,,,,,,0.5,0.6,practice,m,0,0.8708732000086457,-7.16,-7.16,10.14,0,-10.14,0,7.16,-7.16,-7.16,7.16,7.16,7.16,2,132,30,2,,,11,RL,2,F,23,R,2025-05-13_09h54.34.207,RewSL_RL_EEG,
ping,high,midLeft,UP,green,l,lowA,Stimuli\green_bar1.png,Stimuli\green_bar1.png,Stimuli\ping.png,midRight,lowB,downLeft,lowC,downRight,upLeft,upRight,1,rew_high,z,0,8,8,1,,,,,,,0.4,0.7,practice,z,1,0.7966210999875329,-10.14,0,10.14,0,-7.16,-7.16,7.16,-7.16,-7.16,7.16,7.16,7.16,2,112,31,102,,,11,RL,2,F,23,R,2025-05-13_09h54.34.207,RewSL_RL_EEG,
ping,lowC,downRight,DOWN,green,r,lowA,Stimuli\green_bar1.png,Stimuli\green_bar1.png,Stimuli\ping.png,midRight,lowB,downLeft,high,midLeft,upLeft,upRight,1,rew_low,m,0,9,9,13,,,,,,,0.5,0.6,practice,m,1,0.8622093000012683,7.16,-7.16,10.14,0,-7.16,-7.16,-10.14,0,-7.16,7.16,7.16,7.16,2,242,30,103,,,11,RL,2,F,23,R,2025-05-13_09h54.34.207,RewSL_RL_EEG,
ping,lowC,downRight,UP,red,l,lowA,Stimuli\red_bar1.png,Stimuli\red_bar1.png,Stimuli\ping.png,midRight,lowB,downLeft,high,midLeft,upLeft,upRight,1,rew_low,z,0,10,10,14,,,,,,,0.5,0.6,practice,m,0,0.8983883000037167,7.16,-7.16,10.14,0,-7.16,-7.16,-10.14,0,-7.16,7.16,7.16,7.16,2,142,30,103,,,11,RL,2,F,23,R,2025-05-13_09h54.34.207,RewSL_RL_EEG,
ping,lowA,midRight,UP,red,r,high,Stimuli\red_bar1.png,Stimuli\red_bar1.png,Stimuli\ping.png,midLeft,lowB,downLeft,lowC,downRight,upLeft,upRight,1,rew_low,z,0,11,11,6,,,,,,,0.5,0.7,practice,z,1,0.6802922999922885,10.14,0,-10.14,0,-7.16,-7.16,7.16,-7.16,-7.16,7.16,7.16,7.16,2,122,30,104,,,11,RL,2,F,23,R,2025-05-13_09h54.34.207,RewSL_RL_EEG,
ping,lowA,midRight,DOWN,red,l,high,Stimuli\red_bar1.png,Stimuli\red_bar1.png,Stimuli\ping.png,midLeft,lowB,downLeft,lowC,downRight,upLeft,upRight,1,rew_low,m,0,12,12,4,,,,,,,0.5,0.7,practice,m,1,0.609725599992089,10.14,0,-10.14,0,-7.16,-7.16,7.16,-7.16,-7.16,7.16,7.16,7.16,2,222,30,105,,,11,RL,2,F,23,R,2025-05-13_09h54.34.207,RewSL_RL_EEG,
ping,high,midLeft,DOWN,red,l,lowA,Stimuli\red_bar1.png,Stimuli\red_bar1.png,Stimuli\ping.png,midRight,lowB,downLeft,lowC,downRight,upLeft,upRight,1,rew_high,m,0,13,13,2,,,,,,,0.6,0.7,practice,m,1,0.6645733000041218,-10.14,0,10.14,0,-7.16,-7.16,7.16,-7.16,-7.16,7.16,7.16,7.16,2,212,31,205,,,11,RL,2,F,23,R,2025-05-13_09h54.34.207,RewSL_RL_EEG,
ping,lowC,downRight,DOWN,red,r,lowA,Stimuli\red_bar1.png,Stimuli\red_bar1.png,Stimuli\ping.png,midRight,lowB,downLeft,high,midLeft,upLeft,upRight,1,rew_low,m,0,14,14,12,,,,,,,0.5,0.8,practice,m,1,0.6888612000038847,7.16,-7.16,10.14,0,-7.16,-7.16,-10.14,0,-7.16,7.16,7.16,7.16,2,242,30,206,,,11,RL,2,F,23,R,2025-05-13_09h54.34.207,RewSL_RL_EEG,
ping,lowA,midRight,UP,green,r,high,Stimuli\green_bar1.png,Stimuli\green_bar1.png,Stimuli\ping.png,midLeft,lowB,downLeft,lowC,downRight,upLeft,upRight,1,rew_low,z,0,15,15,7,,,,,,,0.5,0.6,practice,z,1,0.7447299000050407,10.14,0,-10.14,0,-7.16,-7.16,7.16,-7.16,-7.16,7.16,7.16,7.16,2,122,30,207,,,11,RL,2,F,23,R,2025-05-13_09h54.34.207,RewSL_RL_EEG,
ping,lowB,midRight,DOWN,red,l,lowA,Stimuli\red_bar1.png,Stimuli\red_bar1.png,Stimuli\ping.png,downLeft,high,downRight,lowC,midLeft,upLeft,upRight,4,rew_low,m,,,,,0,0,0,50,,,0.6,0.7,exp,m,1,0.729000499995891,10.14,0,-7.16,-7.16,7.16,-7.16,-10.14,0,-7.16,7.16,7.16,7.16,8,228,30,1,0,1,11,RL,2,F,23,R,2025-05-13_09h54.34.207,RewSL_RL_EEG,
ping,high,downRight,UP,green,r,lowA,Stimuli\green_bar1.png,Stimuli\green_bar1.png,Stimuli\ping.png,downLeft,lowB,midRight,lowC,midLeft,upLeft,upRight,4,rew_high,z,,,,,0,1,1,21,,,0.4,0.7,exp,m,0,0.8355754999938654,7.16,-7.16,-7.16,-7.16,10.14,0,-10.14,0,-7.16,7.16,7.16,7.16,8,148,31,1,1,2,11,RL,2,F,23,R,2025-05-13_09h54.34.207,RewSL_RL_EEG,
ping,lowB,midRight,UP,green,r,lowA,Stimuli\green_bar1.png,Stimuli\green_bar1.png,Stimuli\ping.png,downLeft,high,downRight,lowC,midLeft,upLeft,upRight,4,rew_low,z,,,,,0,2,2,53,,,0.4,0.7,exp,z,1,0.7137364000082016,10.14,0,-7.16,-7.16,7.16,-7.16,-10.14,0,-7.16,7.16,7.16,7.16,8,128,30,2,2,3,11,RL,2,F,23,R,2025-05-13_09h54.34.207,RewSL_RL_EEG,
ping,lowB,midRight,DOWN,green,l,lowA,Stimuli\green_bar1.png,Stimuli\green_bar1.png,Stimuli\ping.png,downLeft,high,downRight,lowC,midLeft,upLeft,upRight,4,rew_low,m,,,,,0,3,3,67,,,0.5,0.6,exp,m,1,0.6635108000045875,10.14,0,-7.16,-7.16,7.16,-7.16,-10.14,0,-7.16,7.16,7.16,7.16,8,228,30,3,3,4,11,RL,2,F,23,R,2025-05-13_09h54.34.207,RewSL_RL_EEG,
ping,lowB,midRight,DOWN,red,l,lowA,Stimuli\red_bar1.png,Stimuli\red_bar1.png,Stimuli\ping.png,downLeft,high,downRight,lowC,midLeft,upLeft,upRight,4,rew_low,m,,,,,0,4,4,66,,,0.5,0.7,exp,m,1,0.588512999995146,10.14,0,-7.16,-7.16,7.16,-7.16,-10.14,0,-7.16,7.16,7.16,7.16,8,228,30,4,4,5,11,RL,2,F,23,R,2025-05-13_09h54.34.207,RewSL_RL_EEG,
ping,lowC,midLeft,UP,green,r,lowA,Stimuli\green_bar1.png,Stimuli\green_bar1.png,Stimuli\ping.png,downLeft,lowB,midRight,high,downRight,upLeft,upRight,4,rew_low,z,,,,,0,5,5,77,,,0.4,0.7,exp,z,1,0.8043950999999652,-10.14,0,-7.16,-7.16,10.14,0,7.16,-7.16,-7.16,7.16,7.16,7.16,8,118,30,5,5,6,11,RL,2,F,23,R,2025-05-13_09h54.34.207,RewSL_RL_EEG,
ping,high,downRight,DOWN,green,r,lowA,Stimuli\green_bar1.png,Stimuli\green_bar1.png,Stimuli\ping.png,downLeft,lowB,midRight,lowC,midLeft,upLeft,upRight,4,rew_high,m,,,,,0,6,6,7,,,0.5,0.7,exp,m,1,0.6979168999969261,7.16,-7.16,-7.16,-7.16,10.14,0,-10.14,0,-7.16,7.16,7.16,7.16,8,248,31,105,6,7,11,RL,2,F,23,R,2025-05-13_09h54.34.207,RewSL_RL_EEG,
ping,lowB,midRight,UP,green,l,lowA,Stimuli\green_bar1.png,Stimuli\green_bar1.png,Stimuli\ping.png,downLeft,high,downRight,lowC,midLeft,upLeft,upRight,4,rew_low,z,,,,,0,7,7,73,,,0.6,0.6,exp,z,1,0.6891965000104392,10.14,0,-7.16,-7.16,7.16,-7.16,-10.14,0,-7.16,7.16,7.16,7.16,8,128,30,106,7,8,11,RL,2,F,23,R,2025-05-13_09h54.34.207,RewSL_RL_EEG,
ping,high,downRight,UP,red,l,lowA,Stimuli\red_bar1.png,Stimuli\red_bar1.png,Stimuli\ping.png,downLeft,lowB,midRight,lowC,midLeft,upLeft,upRight,4,rew_high,z,,,,,0,8,8,0,,,0.4,0.7,exp,m,0,0.7436653999902774,7.16,-7.16,-7.16,-7.16,10.14,0,-10.14,0,-7.16,7.16,7.16,7.16,8,148,31,106,8,9,11,RL,2,F,23,R,2025-05-13_09h54.34.207,RewSL_RL_EEG,
ping,high,downRight,DOWN,green,r,lowA,Stimuli\green_bar1.png,Stimuli\green_bar1.png,Stimuli\ping.png,downLeft,lowB,midRight,lowC,midLeft,upLeft,upRight,4,rew_high,m,,,,,0,9,9,15,,,0.6,0.7,exp,z,0,0.6723067999992054,7.16,-7.16,-7.16,-7.16,10.14,0,-10.14,0,-7.16,7.16,7.16,7.16,8,248,31,106,9,10,11,RL,2,F,23,R,2025-05-13_09h54.34.207,RewSL_RL_EEG,
ping,high,downRight,UP,red,l,lowA,Stimuli\red_bar1.png,Stimuli\red_bar1.png,Stimuli\ping.png,downLeft,lowB,midRight,lowC,midLeft,upLeft,upRight,4,rew_high,z,,,,,0,10,10,24,,,0.5,0.6,exp,z,1,0.7449129000015091,7.16,-7.16,-7.16,-7.16,10.14,0,-10.14,0,-7.16,7.16,7.16,7.16,8,148,31,206,10,11,11,RL,2,F,23,R,2025-05-13_09h54.34.207,RewSL_RL_EEG,
ping,lowC,midLeft,UP,red,l,lowA,Stimuli\red_bar1.png,Stimuli\red_bar1.png,Stimuli\ping.png,downLeft,lowB,midRight,high,downRight,upLeft,upRight,4,rew_low,z,,,,,0,11,11,80,,,0.6,0.6,exp,z,1,0.8547470000048634,-10.14,0,-7.16,-7.16,10.14,0,7.16,-7.16,-7.16,7.16,7.16,7.16,8,118,30,207,11,12,11,RL,2,F,23,R,2025-05-13_09h54.34.207,RewSL_RL_EEG,
ping,lowA,downLeft,UP,green,l,high,Stimuli\green_bar1.png,Stimuli\green_bar1.png,Stimuli\ping.png,downRight,lowB,midRight,lowC,midLeft,upLeft,upRight,4,rew_low,z,,,,,0,12,12,25,,,0.5,0.7,exp,z,1,0.705860300004133,-7.16,-7.16,7.16,-7.16,10.14,0,-10.14,0,-7.16,7.16,7.16,7.16,8,138,30,208,12,13,11,RL,2,F,23,R,2025-05-13_09h54.34.207,RewSL_RL_EEG,
ping,high,downRight,UP,red,r,lowA,Stimuli\red_bar1.png,Stimuli\red_bar1.png,Stimuli\ping.png,downLeft,lowB,midRight,lowC,midLeft,upLeft,upRight,4,rew_high,z,,,,,0,13,13,4,,,0.6,0.8,exp,z,1,0.8876432999968529,7.16,-7.16,-7.16,-7.16,10.14,0,-10.14,0,-7.16,7.16,7.16,7.16,8,148,31,308,13,14,11,RL,2,F,23,R,2025-05-13_09h54.34.207,RewSL_RL_EEG,
ping,lowA,downLeft,UP,red,r,high,Stimuli\red_bar1.png,Stimuli\red_bar1.png,Stimuli\ping.png,downRight,lowB,midRight,lowC,midLeft,upLeft,upRight,4,rew_low,z,,,,,0,14,14,36,,,0.5,0.7,exp,m,0,1.1304057000088505,-7.16,-7.16,7.16,-7.16,10.14,0,-10.14,0,-7.16,7.16,7.16,7.16,8,138,30,308,14,15,11,RL,2,F,23,R,2025-05-13_09h54.34.207,RewSL_RL_EEG,
ping,lowB,midRight,DOWN,red,r,lowA,Stimuli\red_bar1.png,Stimuli\red_bar1.png,Stimuli\ping.png,downLeft,high,downRight,lowC,midLeft,upLeft,upRight,4,rew_low,m,,,,,0,15,15,70,,,0.5,0.7,exp,m,1,0.8226872000086587,10.14,0,-7.16,-7.16,7.16,-7.16,-10.14,0,-7.16,7.16,7.16,7.16,8,228,30,309,15,16,11,RL,2,F,23,R,2025-05-13_09h54.34.207,RewSL_RL_EEG,
ping,lowA,downLeft,UP,green,l,high,Stimuli\green_bar1.png,Stimuli\green_bar1.png,Stimuli\ping.png,downRight,lowB,midRight,lowC,midLeft,upLeft,upRight,4,rew_low,z,,,,,0,16,16,41,,,0.6,0.7,exp,m,0,0.8704842999868561,-7.16,-7.16,7.16,-7.16,10.14,0,-10.14,0,-7.16,7.16,7.16,7.16,8,138,30,309,16,17,11,RL,2,F,23,R,2025-05-13_09h54.34.207,RewSL_RL_EEG,
ping,high,downRight,DOWN,green,l,lowA,Stimuli\green_bar1.png,Stimuli\green_bar1.png,Stimuli\ping.png,downLeft,lowB,midRight,lowC,midLeft,upLeft,upRight,4,rew_high,m,,,,,0,17,17,19,,,0.5,0.6,exp,m,1,0.912881299998844,7.16,-7.16,-7.16,-7.16,10.14,0,-10.14,0,-7.16,7.16,7.16,7.16,8,248,31,409,17,18,11,RL,2,F,23,R,2025-05-13_09h54.34.207,RewSL_RL_EEG,
ping,lowB,midRight,DOWN,green,r,lowA,Stimuli\green_bar1.png,Stimuli\green_bar1.png,Stimuli\ping.png,downLeft,high,downRight,lowC,midLeft,upLeft,upRight,4,rew_low,m,,,,,0,18,18,55,,,0.4,0.8,exp,z,0,0.7956545000051847,10.14,0,-7.16,-7.16,7.16,-7.16,-10.14,0,-7.16,7.16,7.16,7.16,8,228,30,409,18,19,11,RL,2,F,23,R,2025-05-13_09h54.34.207,RewSL_RL_EEG,
ping,lowC,midLeft,UP,green,r,lowA,Stimuli\green_bar1.png,Stimuli\green_bar1.png,Stimuli\ping.png,downLeft,lowB,midRight,high,downRight,upLeft,upRight,4,rew_low,z,,,,,0,19,19,85,,,0.6,0.7,exp,z,1,0.896989200002281,-10.14,0,-7.16,-7.16,10.14,0,7.16,-7.16,-7.16,7.16,7.16,7.16,8,118,30,410,19,20,11,RL,2,F,23,R,2025-05-13_09h54.34.207,RewSL_RL_EEG,
ping,lowB,midRight,DOWN,green,l,lowA,Stimuli\green_bar1.png,Stimuli\green_bar1.png,Stimuli\ping.png,downLeft,high,downRight,lowC,midLeft,upLeft,upRight,4,rew_low,m,,,,,0,20,20,51,,,0.5,0.8,exp,m,1,0.9127974000002723,10.14,0,-7.16,-7.16,7.16,-7.16,-10.14,0,-7.16,7.16,7.16,7.16,8,228,30,411,20,21,11,RL,2,F,23,R,2025-05-13_09h54.34.207,RewSL_RL_EEG,
ping,lowA,downLeft,UP,red,r,high,Stimuli\red_bar1.png,Stimuli\red_bar1.png,Stimuli\ping.png,downRight,lowB,midRight,lowC,midLeft,upLeft,upRight,4,rew_low,z,,,,,0,21,21,44,,,0.5,0.7,exp,z,1,1.086854900000617,-7.16,-7.16,7.16,-7.16,10.14,0,-10.14,0,-7.16,7.16,7.16,7.16,8,138,30,412,21,22,11,RL,2,F,23,R,2025-05-13_09h54.34.207,RewSL_RL_EEG,
ping,high,downRight,UP,green,l,lowA,Stimuli\green_bar1.png,Stimuli\green_bar1.png,Stimuli\ping.png,downLeft,lowB,midRight,lowC,midLeft,upLeft,upRight,4,rew_high,z,,,,,0,22,22,9,,,0.4,0.8,exp,z,1,1.0790084000036586,7.16,-7.16,-7.16,-7.16,10.14,0,-10.14,0,-7.16,7.16,7.16,7.16,8,148,31,512,22,23,11,RL,2,F,23,R,2025-05-13_09h54.34.207,RewSL_RL_EEG,
ping,lowC,midLeft,DOWN,red,r,lowA,Stimuli\red_bar1.png,Stimuli\red_bar1.png,Stimuli\ping.png,downLeft,lowB,midRight,high,downRight,upLeft,upRight,4,rew_low,m,,,,,0,23,23,98,,,0.4,0.6,exp,z,0,0.7454991999984486,-10.14,0,-7.16,-7.16,10.14,0,7.16,-7.16,-7.16,7.16,7.16,7.16,8,218,30,512,23,24,11,RL,2,F,23,R,2025-05-13_09h54.34.207,RewSL_RL_EEG,
ping,lowA,downLeft,DOWN,red,l,high,Stimuli\red_bar1.png,Stimuli\red_bar1.png,Stimuli\ping.png,downRight,lowB,midRight,lowC,midLeft,upLeft,upRight,4,rew_low,m,,,,,0,24,24,34,,,0.5,0.6,exp,m,1,0.7301435000117635,-7.16,-7.16,7.16,-7.16,10.14,0,-10.14,0,-7.16,7.16,7.16,7.16,8,238,30,513,24,25,11,RL,2,F,23,R,2025-05-13_09h54.34.207,RewSL_RL_EEG,
ping,high,downRight,DOWN,red,r,lowA,Stimuli\red_bar1.png,Stimuli\red_bar1.png,Stimuli\ping.png,downLeft,lowB,midRight,lowC,midLeft,upLeft,upRight,4,rew_high,m,,,,,0,25,25,14,,,0.5,0.7,exp,m,1,0.7805995999951847,7.16,-7.16,-7.16,-7.16,10.14,0,-10.14,0,-7.16,7.16,7.16,7.16,8,248,31,613,25,26,11,RL,2,F,23,R,2025-05-13_09h54.34.207,RewSL_RL_EEG,
ping,lowC,midLeft,UP,red,l,lowA,Stimuli\red_bar1.png,Stimuli\red_bar1.png,Stimuli\ping.png,downLeft,lowB,midRight,high,downRight,upLeft,upRight,4,rew_low,z,,,,,0,26,26,96,,,0.5,0.7,exp,z,1,0.7964095000061207,-10.14,0,-7.16,-7.16,10.14,0,7.16,-7.16,-7.16,7.16,7.16,7.16,8,118,30,614,26,27,11,RL,2,F,23,R,2025-05-13_09h54.34.207,RewSL_RL_EEG,
ping,lowC,midLeft,UP,red,r,lowA,Stimuli\red_bar1.png,Stimuli\red_bar1.png,Stimuli\ping.png,downLeft,lowB,midRight,high,downRight,upLeft,upRight,4,rew_low,z,,,,,0,27,27,76,,,0.4,0.6,exp,z,1,0.613960099988617,-10.14,0,-7.16,-7.16,10.14,0,7.16,-7.16,-7.16,7.16,7.16,7.16,8,118,30,615,27,28,11,RL,2,F,23,R,2025-05-13_09h54.34.207,RewSL_RL_EEG,
ping,lowC,midLeft,UP,red,r,lowA,Stimuli\red_bar1.png,Stimuli\red_bar1.png,Stimuli\ping.png,downLeft,lowB,midRight,high,downRight,upLeft,upRight,4,rew_low,z,,,,,0,28,28,84,,,0.5,0.7,exp,z,1,0.6049320000020089,-10.14,0,-7.16,-7.16,10.14,0,7.16,-7.16,-7.16,7.16,7.16,7.16,8,118,30,616,28,29,11,RL,2,F,23,R,2025-05-13_09h54.34.207,RewSL_RL_EEG,
ping,lowA,downLeft,UP,green,l,high,Stimuli\green_bar1.png,Stimuli\green_bar1.png,Stimuli\ping.png,downRight,lowB,midRight,lowC,midLeft,upLeft,upRight,4,rew_low,z,,,,,0,29,29,49,,,0.6,0.6,exp,m,0,0.8952404000010574,-7.16,-7.16,7.16,-7.16,10.14,0,-10.14,0,-7.16,7.16,7.16,7.16,8,138,30,616,29,30,11,RL,2,F,23,R,2025-05-13_09h54.34.207,RewSL_RL_EEG,
ping,lowC,midLeft,UP,red,l,lowA,Stimuli\red_bar1.png,Stimuli\red_bar1.png,Stimuli\ping.png,downLeft,lowB,midRight,high,downRight,upLeft,upRight,4,rew_low,z,,,,,0,30,30,88,,,0.5,0.8,exp,z,1,0.586800699995365,-10.14,0,-7.16,-7.16,10.14,0,7.16,-7.16,-7.16,7.16,7.16,7.16,8,118,30,617,30,31,11,RL,2,F,23,R,2025-05-13_09h54.34.207,RewSL_RL_EEG,
ping,high,downRight,UP,green,r,lowA,Stimuli\green_bar1.png,Stimuli\green_bar1.png,Stimuli\ping.png,downLeft,lowB,midRight,lowC,midLeft,upLeft,upRight,4,rew_high,z,,,,,0,31,31,5,,,0.5,0.7,exp,m,0,0.7124752000090666,7.16,-7.16,-7.16,-7.16,10.14,0,-10.14,0,-7.16,7.16,7.16,7.16,8,148,31,617,31,32,11,RL,2,F,23,R,2025-05-13_09h54.34.207,RewSL_RL_EEG,
ping,lowB,midRight,UP,red,l,lowA,Stimuli\red_bar1.png,Stimuli\red_bar1.png,Stimuli\ping.png,downLeft,high,downRight,lowC,midLeft,upLeft,upRight,4,rew_low,z,,,,,0,32,32,64,,,0.4,0.8,exp,z,1,0.9041755000071134,10.14,0,-7.16,-7.16,7.16,-7.16,-10.14,0,-7.16,7.16,7.16,7.16,8,128,30,618,32,33,11,RL,2,F,23,R,2025-05-13_09h54.34.207,RewSL_RL_EEG,
ping,lowA,downLeft,UP,red,l,high,Stimuli\red_bar1.png,Stimuli\red_bar1.png,Stimuli\ping.png,downRight,lowB,midRight,lowC,midLeft,upLeft,upRight,4,rew_low,z,,,,,0,33,33,40,,,0.6,0.6,exp,z,1,0.7553853999997955,-7.16,-7.16,7.16,-7.16,10.14,0,-10.14,0,-7.16,7.16,7.16,7.16,8,138,30,619,33,34,11,RL,2,F,23,R,2025-05-13_09h54.34.207,RewSL_RL_EEG,
ping,lowB,midRight,UP,red,r,lowA,Stimuli\red_bar1.png,Stimuli\red_bar1.png,Stimuli\ping.png,downLeft,high,downRight,lowC,midLeft,upLeft,upRight,4,rew_low,z,,,,,0,34,34,60,,,0.5,0.6,exp,z,1,0.664498400001321,10.14,0,-7.16,-7.16,7.16,-7.16,-10.14,0,-7.16,7.16,7.16,7.16,8,128,30,620,34,35,11,RL,2,F,23,R,2025-05-13_09h54.34.207,RewSL_RL_EEG,
ping,lowA,downLeft,DOWN,green,l,high,Stimuli\green_bar1.png,Stimuli\green_bar1.png,Stimuli\ping.png,downRight,lowB,midRight,lowC,midLeft,upLeft,upRight,4,rew_low,m,,,,,0,35,35,35,,,0.5,0.8,exp,m,1,0.8872344000119483,-7.16,-7.16,7.16,-7.16,10.14,0,-10.14,0,-7.16,7.16,7.16,7.16,8,238,30,621,35,36,11,RL,2,F,23,R,2025-05-13_09h54.34.207,RewSL_RL_EEG,
ping,lowB,midRight,DOWN,red,l,lowA,Stimuli\red_bar1.png,Stimuli\red_bar1.png,Stimuli\ping.png,downLeft,high,downRight,lowC,midLeft,upLeft,upRight,4,rew_low,m,,,,,0,36,36,74,,,0.4,0.8,exp,z,0,0.7549572999996599,10.14,0,-7.16,-7.16,7.16,-7.16,-10.14,0,-7.16,7.16,7.16,7.16,8,228,30,621,36,37,11,RL,2,F,23,R,2025-05-13_09h54.34.207,RewSL_RL_EEG,
ping,lowA,downLeft,UP,green,r,high,Stimuli\green_bar1.png,Stimuli\green_bar1.png,Stimuli\ping.png,downRight,lowB,midRight,lowC,midLeft,upLeft,upRight,4,rew_low,z,,,,,0,37,37,37,,,0.4,0.8,exp,z,1,0.904523799996241,-7.16,-7.16,7.16,-7.16,10.14,0,-10.14,0,-7.16,7.16,7.16,7.16,8,138,30,622,37,38,11,RL,2,F,23,R,2025-05-13_09h54.34.207,RewSL_RL_EEG,
ping,lowB,midRight,UP,green,l,lowA,Stimuli\green_bar1.png,Stimuli\green_bar1.png,Stimuli\ping.png,downLeft,high,downRight,lowC,midLeft,upLeft,upRight,4,rew_low,z,,,,,0,38,38,65,,,0.5,0.7,exp,m,0,0.8292623000015737,10.14,0,-7.16,-7.16,7.16,-7.16,-10.14,0,-7.16,7.16,7.16,7.16,8,128,30,622,38,39,11,RL,2,F,23,R,2025-05-13_09h54.34.207,RewSL_RL_EEG,
ping,high,downRight,UP,red,l,lowA,Stimuli\red_bar1.png,Stimuli\red_bar1.png,Stimuli\ping.png,downLeft,lowB,midRight,lowC,midLeft,upLeft,upRight,4,rew_high,z,,,,,0,39,39,16,,,0.6,0.8,exp,z,1,0.8206252999952994,7.16,-7.16,-7.16,-7.16,10.14,0,-10.14,0,-7.16,7.16,7.16,7.16,8,148,31,722,39,40,11,RL,2,F,23,R,2025-05-13_09h54.34.207,RewSL_RL_EEG,
ping,lowB,midRight,DOWN,green,r,lowA,Stimuli\green_bar1.png,Stimuli\green_bar1.png,Stimuli\ping.png,downLeft,high,downRight,lowC,midLeft,upLeft,upRight,4,rew_low,m,,,,,0,40,40,71,,,0.5,0.6,exp,m,1,0.8723619000084,10.14,0,-7.16,-7.16,7.16,-7.16,-10.14,0,-7.16,7.16,7.16,7.16,8,228,30,723,40,41,11,RL,2,F,23,R,2025-05-13_09h54.34.207,RewSL_RL_EEG,
ping,lowC,midLeft,DOWN,red,r,lowA,Stimuli\red_bar1.png,Stimuli\red_bar1.png,Stimuli\ping.png,downLeft,lowB,midRight,high,downRight,upLeft,upRight,4,rew_low,m,,,,,0,41,41,86,,,0.5,0.6,exp,m,1,0.6960084000020288,-10.14,0,-7.16,-7.16,10.14,0,7.16,-7.16,-7.16,7.16,7.16,7.16,8,218,30,724,41,42,11,RL,2,F,23,R,2025-05-13_09h54.34.207,RewSL_RL_EEG,
ping,lowC,midLeft,DOWN,green,r,lowA,Stimuli\green_bar1.png,Stimuli\green_bar1.png,Stimuli\ping.png,downLeft,lowB,midRight,high,downRight,upLeft,upRight,4,rew_low,m,,,,,0,42,42,99,,,0.4,0.8,exp,z,0,0.8290683000086574,-10.14,0,-7.16,-7.16,10.14,0,7.16,-7.16,-7.16,7.16,7.16,7.16,8,218,30,724,42,43,11,RL,2,F,23,R,2025-05-13_09h54.34.207,RewSL_RL_EEG,
ping,lowB,midRight,DOWN,green,r,lowA,Stimuli\green_bar1.png,Stimuli\green_bar1.png,Stimuli\ping.png,downLeft,high,downRight,lowC,midLeft,upLeft,upRight,4,rew_low,m,,,,,0,43,43,63,,,0.4,0.7,exp,m,1,0.695735400004196,10.14,0,-7.16,-7.16,7.16,-7.16,-10.14,0,-7.16,7.16,7.16,7.16,8,228,30,725,43,44,11,RL,2,F,23,R,2025-05-13_09h54.34.207,RewSL_RL_EEG,
ping,high,downRight,DOWN,red,r,lowA,Stimuli\red_bar1.png,Stimuli\red_bar1.png,Stimuli\ping.png,downLeft,lowB,midRight,lowC,midLeft,upLeft,upRight,4,rew_high,m,,,,,0,44,44,6,,,0.5,0.8,exp,m,1,0.7212959000025876,7.16,-7.16,-7.16,-7.16,10.14,0,-10.14,0,-7.16,7.16,7.16,7.16,8,248,31,825,44,45,11,RL,2,F,23,R,2025-05-13_09h54.34.207,RewSL_RL_EEG,
ping,lowC,midLeft,UP,green,l,lowA,Stimuli\green_bar1.png,Stimuli\green_bar1.png,Stimuli\ping.png,downLeft,lowB,midRight,high,downRight,upLeft,upRight,4,rew_low,z,,,,,0,45,45,81,,,0.5,0.7,exp,z,1,0.813047200004803,-10.14,0,-7.16,-7.16,10.14,0,7.16,-7.16,-7.16,7.16,7.16,7.16,8,118,30,826,45,46,11,RL,2,F,23,R,2025-05-13_09h54.34.207,RewSL_RL_EEG,
ping,high,downRight,UP,green,r,lowA,Stimuli\green_bar1.png,Stimuli\green_bar1.png,Stimuli\ping.png,downLeft,lowB,midRight,lowC,midLeft,upLeft,upRight,4,rew_high,z,,,,,0,46,46,13,,,0.5,0.6,exp,m,0,0.6965259999997215,7.16,-7.16,-7.16,-7.16,10.14,0,-10.14,0,-7.16,7.16,7.16,7.16,8,148,31,826,46,47,11,RL,2,F,23,R,2025-05-13_09h54.34.207,RewSL_RL_EEG,
ping,lowA,downLeft,UP,red,r,high,Stimuli\red_bar1.png,Stimuli\red_bar1.png,Stimuli\ping.png,downRight,lowB,midRight,lowC,midLeft,upLeft,upRight,4,rew_low,z,,,,,0,47,47,28,,,0.6,0.7,exp,z,1,0.8040813999978127,-7.16,-7.16,7.16,-7.16,10.14,0,-10.14,0,-7.16,7.16,7.16,7.16,8,138,30,827,47,48,11,RL,2,F,23,R,2025-05-13_09h54.34.207,RewSL_RL_EEG,
ping,lowC,midLeft,DOWN,green,r,lowA,Stimuli\green_bar1.png,Stimuli\green_bar1.png,Stimuli\ping.png,downLeft,lowB,midRight,high,downRight,upLeft,upRight,4,rew_low,m,,,,,0,48,48,95,,,0.6,0.7,exp,z,0,0.8869478999986313,-10.14,0,-7.16,-7.16,10.14,0,7.16,-7.16,-7.16,7.16,7.16,7.16,8,218,30,827,48,49,11,RL,2,F,23,R,2025-05-13_09h54.34.207,RewSL_RL_EEG,
ping,lowA,downLeft,DOWN,red,r,high,Stimuli\red_bar1.png,Stimuli\red_bar1.png,Stimuli\ping.png,downRight,lowB,midRight,lowC,midLeft,upLeft,upRight,4,rew_low,m,,,,,0,49,49,46,,,0.5,0.8,exp,z,0,0.6794332999998005,-7.16,-7.16,7.16,-7.16,10.14,0,-10.14,0,-7.16,7.16,7.16,7.16,8,238,30,827,49,50,11,RL,2,F,23,R,2025-05-13_09h54.34.207,RewSL_RL_EEG,
ping,high,downRight,DOWN,red,r,lowA,Stimuli\red_bar1.png,Stimuli\red_bar1.png,Stimuli\ping.png,downLeft,lowB,midRight,lowC,midLeft,upLeft,upRight,4,rew_high,m,,,,,0,50,50,22,,,0.5,0.7,exp,m,1,0.8302970999939134,7.16,-7.16,-7.16,-7.16,10.14,0,-10.14,0,-7.16,7.16,7.16,7.16,8,248,31,927,50,51,11,RL,2,F,23,R,2025-05-13_09h54.34.207,RewSL_RL_EEG,
ping,lowB,midRight,DOWN,red,l,lowA,Stimuli\red_bar1.png,Stimuli\red_bar1.png,Stimuli\ping.png,downLeft,high,downRight,lowC,midLeft,upLeft,upRight,4,rew_low,m,,,,,0,51,51,58,,,0.5,0.8,exp,m,1,0.7897949000034714,10.14,0,-7.16,-7.16,7.16,-7.16,-10.14,0,-7.16,7.16,7.16,7.16,8,228,30,928,51,52,11,RL,2,F,23,R,2025-05-13_09h54.34.207,RewSL_RL_EEG,
ping,lowC,midLeft,DOWN,red,l,lowA,Stimuli\red_bar1.png,Stimuli\red_bar1.png,Stimuli\ping.png,downLeft,lowB,midRight,high,downRight,upLeft,upRight,4,rew_low,m,,,,,0,52,52,90,,,0.4,0.7,exp,m,1,0.6631493000022601,-10.14,0,-7.16,-7.16,10.14,0,7.16,-7.16,-7.16,7.16,7.16,7.16,8,218,30,929,52,53,11,RL,2,F,23,R,2025-05-13_09h54.34.207,RewSL_RL_EEG,
ping,lowB,midRight,UP,green,r,lowA,Stimuli\green_bar1.png,Stimuli\green_bar1.png,Stimuli\ping.png,downLeft,high,downRight,lowC,midLeft,upLeft,upRight,4,rew_low,z,,,,,0,53,53,69,,,0.5,0.8,exp,z,1,0.6876167000009445,10.14,0,-7.16,-7.16,7.16,-7.16,-10.14,0,-7.16,7.16,7.16,7.16,8,128,30,930,53,54,11,RL,2,F,23,R,2025-05-13_09h54.34.207,RewSL_RL_EEG,
ping,lowA,downLeft,DOWN,green,l,high,Stimuli\green_bar1.png,Stimuli\green_bar1.png,Stimuli\ping.png,downRight,lowB,midRight,lowC,midLeft,upLeft,upRight,4,rew_low,m,,,,,0,54,54,43,,,0.6,0.7,exp,m,1,0.747132500007865,-7.16,-7.16,7.16,-7.16,10.14,0,-10.14,0,-7.16,7.16,7.16,7.16,8,238,30,931,54,55,11,RL,2,F,23,R,2025-05-13_09h54.34.207,RewSL_RL_EEG,
ping,high,downRight,UP,red,l,lowA,Stimuli\red_bar1.png,Stimuli\red_bar1.png,Stimuli\ping.png,downLeft,lowB,midRight,lowC,midLeft,upLeft,upRight,4,rew_high,z,,,,,0,55,55,8,,,0.5,0.6,exp,z,1,0.7722674999968149,7.16,-7.16,-7.16,-7.16,10.14,0,-10.14,0,-7.16,7.16,7.16,7.16,8,148,31,1031,55,56,11,RL,2,F,23,R,2025-05-13_09h54.34.207,RewSL_RL_EEG,
ping,lowA,downLeft,DOWN,green,r,high,Stimuli\green_bar1.png,Stimuli\green_bar1.png,Stimuli\ping.png,downRight,lowB,midRight,lowC,midLeft,upLeft,upRight,4,rew_low,m,,,,,0,56,56,31,,,0.6,0.7,exp,m,1,0.6950900000083493,-7.16,-7.16,7.16,-7.16,10.14,0,-10.14,0,-7.16,7.16,7.16,7.16,8,238,30,1032,56,57,11,RL,2,F,23,R,2025-05-13_09h54.34.207,RewSL_RL_EEG,
ping,high,downRight,UP,green,l,lowA,Stimuli\green_bar1.png,Stimuli\green_bar1.png,Stimuli\ping.png,downLeft,lowB,midRight,lowC,midLeft,upLeft,upRight,4,rew_high,z,,,,,0,57,57,17,,,0.5,0.7,exp,z,1,0.7054937000066275,7.16,-7.16,-7.16,-7.16,10.14,0,-10.14,0,-7.16,7.16,7.16,7.16,8,148,31,1132,57,58,11,RL,2,F,23,R,2025-05-13_09h54.34.207,RewSL_RL_EEG,
ping,lowA,downLeft,DOWN,red,l,high,Stimuli\red_bar1.png,Stimuli\red_bar1.png,Stimuli\ping.png,downRight,lowB,midRight,lowC,midLeft,upLeft,upRight,4,rew_low,m,,,,,0,58,58,26,,,0.6,0.7,exp,m,1,0.7120484999904875,-7.16,-7.16,7.16,-7.16,10.14,0,-10.14,0,-7.16,7.16,7.16,7.16,8,238,30,1133,58,59,11,RL,2,F,23,R,2025-05-13_09h54.34.207,RewSL_RL_EEG,
ping,lowA,downLeft,DOWN,green,r,high,Stimuli\green_bar1.png,Stimuli\green_bar1.png,Stimuli\ping.png,downRight,lowB,midRight,lowC,midLeft,upLeft,upRight,4,rew_low,m,,,,,0,59,59,47,,,0.5,0.7,exp,m,1,0.8549726000055671,-7.16,-7.16,7.16,-7.16,10.14,0,-10.14,0,-7.16,7.16,7.16,7.16,8,238,30,1134,59,60,11,RL,2,F,23,R,2025-05-13_09h54.34.207,RewSL_RL_EEG,
ping,lowC,midLeft,UP,green,l,lowA,Stimuli\green_bar1.png,Stimuli\green_bar1.png,Stimuli\ping.png,downLeft,lowB,midRight,high,downRight,upLeft,upRight,4,rew_low,z,,,,,0,60,60,97,,,0.5,0.6,exp,m,0,0.7709840000024997,-10.14,0,-7.16,-7.16,10.14,0,7.16,-7.16,-7.16,7.16,7.16,7.16,8,118,30,1134,60,61,11,RL,2,F,23,R,2025-05-13_09h54.34.207,RewSL_RL_EEG,
ping,high,downRight,DOWN,green,r,lowA,Stimuli\green_bar1.png,Stimuli\green_bar1.png,Stimuli\ping.png,downLeft,lowB,midRight,lowC,midLeft,upLeft,upRight,4,rew_high,m,,,,,0,61,61,23,,,0.4,0.6,exp,z,0,0.6398862000060035,7.16,-7.16,-7.16,-7.16,10.14,0,-10.14,0,-7.16,7.16,7.16,7.16,8,248,31,1134,61,62,11,RL,2,F,23,R,2025-05-13_09h54.34.207,RewSL_RL_EEG,
ping,lowB,midRight,UP,red,l,lowA,Stimuli\red_bar1.png,Stimuli\red_bar1.png,Stimuli\ping.png,downLeft,high,downRight,lowC,midLeft,upLeft,upRight,4,rew_low,z,,,,,0,62,62,72,,,0.5,0.8,exp,m,0,0.6531610999954864,10.14,0,-7.16,-7.16,7.16,-7.16,-10.14,0,-7.16,7.16,7.16,7.16,8,128,30,1134,62,63,11,RL,2,F,23,R,2025-05-13_09h54.34.207,RewSL_RL_EEG,
ping,lowA,downLeft,UP,green,r,high,Stimuli\green_bar1.png,Stimuli\green_bar1.png,Stimuli\ping.png,downRight,lowB,midRight,lowC,midLeft,upLeft,upRight,4,rew_low,z,,,,,0,63,63,29,,,0.5,0.6,exp,m,0,0.7726913999940734,-7.16,-7.16,7.16,-7.16,10.14,0,-10.14,0,-7.16,7.16,7.16,7.16,8,138,30,1134,63,64,11,RL,2,F,23,R,2025-05-13_09h54.34.207,RewSL_RL_EEG,
ping,lowC,midLeft,DOWN,red,l,lowA,Stimuli\red_bar1.png,Stimuli\red_bar1.png,Stimuli\ping.png,downLeft,lowB,midRight,high,downRight,upLeft,upRight,4,rew_low,m,,,,,0,64,64,82,,,0.5,0.7,exp,z,0,1.1950824000086868,-10.14,0,-7.16,-7.16,10.14,0,7.16,-7.16,-7.16,7.16,7.16,7.16,8,218,30,1134,64,65,11,RL,2,F,23,R,2025-05-13_09h54.34.207,RewSL_RL_EEG,
ping,lowB,midRight,UP,red,r,lowA,Stimuli\red_bar1.png,Stimuli\red_bar1.png,Stimuli\ping.png,downLeft,high,downRight,lowC,midLeft,upLeft,upRight,4,rew_low,z,,,,,0,65,65,52,,,0.4,0.6,exp,z,1,0.6294426999957068,10.14,0,-7.16,-7.16,7.16,-7.16,-10.14,0,-7.16,7.16,7.16,7.16,8,128,30,1135,65,66,11,RL,2,F,23,R,2025-05-13_09h54.34.207,RewSL_RL_EEG,
ping,high,downRight,DOWN,green,l,lowA,Stimuli\green_bar1.png,Stimuli\green_bar1.png,Stimuli\ping.png,downLeft,lowB,midRight,lowC,midLeft,upLeft,upRight,4,rew_high,m,,,,,0,66,66,3,,,0.5,0.7,exp,m,1,0.6455836000095587,7.16,-7.16,-7.16,-7.16,10.14,0,-10.14,0,-7.16,7.16,7.16,7.16,8,248,31,1235,66,67,11,RL,2,F,23,R,2025-05-13_09h54.34.207,RewSL_RL_EEG,
ping,lowB,midRight,DOWN,red,r,lowA,Stimuli\red_bar1.png,Stimuli\red_bar1.png,Stimuli\ping.png,downLeft,high,downRight,lowC,midLeft,upLeft,upRight,4,rew_low,m,,,,,0,67,67,54,,,0.6,0.8,exp,m,1,0.6042561000067508,10.14,0,-7.16,-7.16,7.16,-7.16,-10.14,0,-7.16,7.16,7.16,7.16,8,228,30,1236,67,68,11,RL,2,F,23,R,2025-05-13_09h54.34.207,RewSL_RL_EEG,
ping,lowB,midRight,UP,red,r,lowA,Stimuli\red_bar1.png,Stimuli\red_bar1.png,Stimuli\ping.png,downLeft,high,downRight,lowC,midLeft,upLeft,upRight,4,rew_low,z,,,,,0,68,68,68,,,0.5,0.7,exp,z,1,0.6542211000050884,10.14,0,-7.16,-7.16,7.16,-7.16,-10.14,0,-7.16,7.16,7.16,7.16,8,128,30,1237,68,69,11,RL,2,F,23,R,2025-05-13_09h54.34.207,RewSL_RL_EEG,
ping,lowC,midLeft,UP,red,r,lowA,Stimuli\red_bar1.png,Stimuli\red_bar1.png,Stimuli\ping.png,downLeft,lowB,midRight,high,downRight,upLeft,upRight,4,rew_low,z,,,,,0,69,69,92,,,0.6,0.7,exp,m,0,0.5551647999964189,-10.14,0,-7.16,-7.16,10.14,0,7.16,-7.16,-7.16,7.16,7.16,7.16,8,118,30,1237,69,70,11,RL,2,F,23,R,2025-05-13_09h54.34.207,RewSL_RL_EEG,
ping,high,downRight,DOWN,red,l,lowA,Stimuli\red_bar1.png,Stimuli\red_bar1.png,Stimuli\ping.png,downLeft,lowB,midRight,lowC,midLeft,upLeft,upRight,4,rew_high,m,,,,,0,70,70,18,,,0.5,0.6,exp,z,0,0.5637181000056444,7.16,-7.16,-7.16,-7.16,10.14,0,-10.14,0,-7.16,7.16,7.16,7.16,8,248,31,1237,70,71,11,RL,2,F,23,R,2025-05-13_09h54.34.207,RewSL_RL_EEG,
ping,high,downRight,DOWN,green,l,lowA,Stimuli\green_bar1.png,Stimuli\green_bar1.png,Stimuli\ping.png,downLeft,lowB,midRight,lowC,midLeft,upLeft,upRight,4,rew_high,m,,,,,0,71,71,11,,,0.5,0.8,exp,m,1,0.6791340000054333,7.16,-7.16,-7.16,-7.16,10.14,0,-10.14,0,-7.16,7.16,7.16,7.16,8,248,31,1337,71,72,11,RL,2,F,23,R,2025-05-13_09h54.34.207,RewSL_RL_EEG,
ping,lowC,midLeft,DOWN,red,r,lowA,Stimuli\red_bar1.png,Stimuli\red_bar1.png,Stimuli\ping.png,downLeft,lowB,midRight,high,downRight,upLeft,upRight,4,rew_low,m,,,,,0,72,72,78,,,0.6,0.8,exp,m,1,0.8368942999950377,-10.14,0,-7.16,-7.16,10.14,0,7.16,-7.16,-7.16,7.16,7.16,7.16,8,218,30,1338,72,73,11,RL,2,F,23,R,2025-05-13_09h54.34.207,RewSL_RL_EEG,
ping,lowA,downLeft,DOWN,red,r,high,Stimuli\red_bar1.png,Stimuli\red_bar1.png,Stimuli\ping.png,downRight,lowB,midRight,lowC,midLeft,upLeft,upRight,4,rew_low,m,,,,,0,73,73,38,,,0.5,0.8,exp,m,1,0.5886471999983769,-7.16,-7.16,7.16,-7.16,10.14,0,-10.14,0,-7.16,7.16,7.16,7.16,8,238,30,1339,73,74,11,RL,2,F,23,R,2025-05-13_09h54.34.207,RewSL_RL_EEG,
ping,high,downRight,DOWN,red,l,lowA,Stimuli\red_bar1.png,Stimuli\red_bar1.png,Stimuli\ping.png,downLeft,lowB,midRight,lowC,midLeft,upLeft,upRight,4,rew_high,m,,,,,0,74,74,10,,,0.6,0.7,exp,m,1,0.5801452000014251,7.16,-7.16,-7.16,-7.16,10.14,0,-10.14,0,-7.16,7.16,7.16,7.16,8,248,31,1439,74,75,11,RL,2,F,23,R,2025-05-13_09h54.34.207,RewSL_RL_EEG,
ping,lowC,midLeft,DOWN,green,l,lowA,Stimuli\green_bar1.png,Stimuli\green_bar1.png,Stimuli\ping.png,downLeft,lowB,midRight,high,downRight,upLeft,upRight,4,rew_low,m,,,,,0,75,75,83,,,0.5,0.8,exp,m,1,0.7038218999950914,-10.14,0,-7.16,-7.16,10.14,0,7.16,-7.16,-7.16,7.16,7.16,7.16,8,218,30,1440,75,76,11,RL,2,F,23,R,2025-05-13_09h54.34.207,RewSL_RL_EEG,
ping,lowC,midLeft,DOWN,green,l,lowA,Stimuli\green_bar1.png,Stimuli\green_bar1.png,Stimuli\ping.png,downLeft,lowB,midRight,high,downRight,upLeft,upRight,4,rew_low,m,,,,,0,76,76,91,,,0.4,0.6,exp,m,1,0.6606163999967976,-10.14,0,-7.16,-7.16,10.14,0,7.16,-7.16,-7.16,7.16,7.16,7.16,8,218,30,1441,76,77,11,RL,2,F,23,R,2025-05-13_09h54.34.207,RewSL_RL_EEG,
ping,lowB,midRight,UP,green,l,lowA,Stimuli\green_bar1.png,Stimuli\green_bar1.png,Stimuli\ping.png,downLeft,high,downRight,lowC,midLeft,upLeft,upRight,4,rew_low,z,,,,,0,77,77,57,,,0.5,0.6,exp,z,1,0.6879398000019137,10.14,0,-7.16,-7.16,7.16,-7.16,-10.14,0,-7.16,7.16,7.16,7.16,8,128,30,1442,77,78,11,RL,2,F,23,R,2025-05-13_09h54.34.207,RewSL_RL_EEG,
ping,lowA,downLeft,UP,green,r,high,Stimuli\green_bar1.png,Stimuli\green_bar1.png,Stimuli\ping.png,downRight,lowB,midRight,lowC,midLeft,upLeft,upRight,4,rew_low,z,,,,,0,78,78,45,,,0.4,0.8,exp,m,0,0.7386483000009321,-7.16,-7.16,7.16,-7.16,10.14,0,-10.14,0,-7.16,7.16,7.16,7.16,8,138,30,1442,78,79,11,RL,2,F,23,R,2025-05-13_09h54.34.207,RewSL_RL_EEG,
ping,lowC,midLeft,DOWN,red,r,lowA,Stimuli\red_bar1.png,Stimuli\red_bar1.png,Stimuli\ping.png,downLeft,lowB,midRight,high,downRight,upLeft,upRight,4,rew_low,m,,,,,0,79,79,94,,,0.4,0.7,exp,m,1,0.6036447000078624,-10.14,0,-7.16,-7.16,10.14,0,7.16,-7.16,-7.16,7.16,7.16,7.16,8,218,30,1443,79,80,11,RL,2,F,23,R,2025-05-13_09h54.34.207,RewSL_RL_EEG,
ping,lowA,downLeft,UP,green,l,high,Stimuli\green_bar1.png,Stimuli\green_bar1.png,Stimuli\ping.png,downRight,lowB,midRight,lowC,midLeft,upLeft,upRight,4,rew_low,z,,,,,0,80,80,33,,,0.5,0.8,exp,z,1,0.6966967999906046,-7.16,-7.16,7.16,-7.16,10.14,0,-10.14,0,-7.16,7.16,7.16,7.16,8,138,30,1444,80,81,11,RL,2,F,23,R,2025-05-13_09h54.34.207,RewSL_RL_EEG,
ping,lowA,downLeft,DOWN,green,l,high,Stimuli\green_bar1.png,Stimuli\green_bar1.png,Stimuli\ping.png,downRight,lowB,midRight,lowC,midLeft,upLeft,upRight,4,rew_low,m,,,,,0,81,81,27,,,0.5,0.7,exp,m,1,0.6381019999971613,-7.16,-7.16,7.16,-7.16,10.14,0,-10.14,0,-7.16,7.16,7.16,7.16,8,238,30,1445,81,82,11,RL,2,F,23,R,2025-05-13_09h54.34.207,RewSL_RL_EEG,
ping,lowC,midLeft,UP,green,l,lowA,Stimuli\green_bar1.png,Stimuli\green_bar1.png,Stimuli\ping.png,downLeft,lowB,midRight,high,downRight,upLeft,upRight,4,rew_low,z,,,,,0,82,82,89,,,0.5,0.7,exp,z,1,0.7379128999891691,-10.14,0,-7.16,-7.16,10.14,0,7.16,-7.16,-7.16,7.16,7.16,7.16,8,118,30,1446,82,83,11,RL,2,F,23,R,2025-05-13_09h54.34.207,RewSL_RL_EEG,
ping,lowC,midLeft,DOWN,green,r,lowA,Stimuli\green_bar1.png,Stimuli\green_bar1.png,Stimuli\ping.png,downLeft,lowB,midRight,high,downRight,upLeft,upRight,4,rew_low,m,,,,,0,83,83,87,,,0.5,0.6,exp,z,0,0.5979587999900104,-10.14,0,-7.16,-7.16,10.14,0,7.16,-7.16,-7.16,7.16,7.16,7.16,8,218,30,1446,83,84,11,RL,2,F,23,R,2025-05-13_09h54.34.207,RewSL_RL_EEG,
ping,high,downRight,UP,green,l,lowA,Stimuli\green_bar1.png,Stimuli\green_bar1.png,Stimuli\ping.png,downLeft,lowB,midRight,lowC,midLeft,upLeft,upRight,4,rew_high,z,,,,,0,84,84,1,,,0.4,0.7,exp,z,1,0.871715100001893,7.16,-7.16,-7.16,-7.16,10.14,0,-10.14,0,-7.16,7.16,7.16,7.16,8,148,31,1546,84,85,11,RL,2,F,23,R,2025-05-13_09h54.34.207,RewSL_RL_EEG,
ping,lowB,midRight,UP,red,l,lowA,Stimuli\red_bar1.png,Stimuli\red_bar1.png,Stimuli\ping.png,downLeft,high,downRight,lowC,midLeft,upLeft,upRight,4,rew_low,z,,,,,0,85,85,56,,,0.6,0.7,exp,z,1,0.9118676999933086,10.14,0,-7.16,-7.16,7.16,-7.16,-10.14,0,-7.16,7.16,7.16,7.16,8,128,30,1547,85,86,11,RL,2,F,23,R,2025-05-13_09h54.34.207,RewSL_RL_EEG,
ping,lowA,downLeft,UP,red,l,high,Stimuli\red_bar1.png,Stimuli\red_bar1.png,Stimuli\ping.png,downRight,lowB,midRight,lowC,midLeft,upLeft,upRight,4,rew_low,z,,,,,0,86,86,32,,,0.5,0.6,exp,m,0,0.796301999987918,-7.16,-7.16,7.16,-7.16,10.14,0,-10.14,0,-7.16,7.16,7.16,7.16,8,138,30,1547,86,87,11,RL,2,F,23,R,2025-05-13_09h54.34.207,RewSL_RL_EEG,
ping,lowA,downLeft,UP,red,l,high,Stimuli\red_bar1.png,Stimuli\red_bar1.png,Stimuli\ping.png,downRight,lowB,midRight,lowC,midLeft,upLeft,upRight,4,rew_low,z,,,,,0,87,87,48,,,0.5,0.8,exp,m,0,0.7387021999893477,-7.16,-7.16,7.16,-7.16,10.14,0,-10.14,0,-7.16,7.16,7.16,7.16,8,138,30,1547,87,88,11,RL,2,F,23,R,2025-05-13_09h54.34.207,RewSL_RL_EEG,
ping,lowA,downLeft,DOWN,red,l,high,Stimuli\red_bar1.png,Stimuli\red_bar1.png,Stimuli\ping.png,downRight,lowB,midRight,lowC,midLeft,upLeft,upRight,4,rew_low,m,,,,,0,88,88,42,,,0.4,0.6,exp,z,0,0.7045989999896847,-7.16,-7.16,7.16,-7.16,10.14,0,-10.14,0,-7.16,7.16,7.16,7.16,8,238,30,1547,88,89,11,RL,2,F,23,R,2025-05-13_09h54.34.207,RewSL_RL_EEG,
ping,lowB,midRight,UP,green,r,lowA,Stimuli\green_bar1.png,Stimuli\green_bar1.png,Stimuli\ping.png,downLeft,high,downRight,lowC,midLeft,upLeft,upRight,4,rew_low,z,,,,,0,89,89,61,,,0.6,0.6,exp,z,1,0.6534803999966243,10.14,0,-7.16,-7.16,7.16,-7.16,-10.14,0,-7.16,7.16,7.16,7.16,8,128,30,1548,89,90,11,RL,2,F,23,R,2025-05-13_09h54.34.207,RewSL_RL_EEG,
ping,high,downRight,UP,red,r,lowA,Stimuli\red_bar1.png,Stimuli\red_bar1.png,Stimuli\ping.png,downLeft,lowB,midRight,lowC,midLeft,upLeft,upRight,4,rew_high,z,,,,,0,90,90,12,,,0.4,0.6,exp,m,0,0.9386312999995425,7.16,-7.16,-7.16,-7.16,10.14,0,-10.14,0,-7.16,7.16,7.16,7.16,8,148,31,1548,90,91,11,RL,2,F,23,R,2025-05-13_09h54.34.207,RewSL_RL_EEG,
ping,lowA,downLeft,DOWN,green,r,high,Stimuli\green_bar1.png,Stimuli\green_bar1.png,Stimuli\ping.png,downRight,lowB,midRight,lowC,midLeft,upLeft,upRight,4,rew_low,m,,,,,0,91,91,39,,,0.5,0.6,exp,z,0,0.6707943999936106,-7.16,-7.16,7.16,-7.16,10.14,0,-10.14,0,-7.16,7.16,7.16,7.16,8,238,30,1548,91,92,11,RL,2,F,23,R,2025-05-13_09h54.34.207,RewSL_RL_EEG,
ping,lowC,midLeft,UP,green,r,lowA,Stimuli\green_bar1.png,Stimuli\green_bar1.png,Stimuli\ping.png,downLeft,lowB,midRight,high,downRight,upLeft,upRight,4,rew_low,z,,,,,0,92,92,93,,,0.5,0.7,exp,m,0,1.0705111999996006,-10.14,0,-7.16,-7.16,10.14,0,7.16,-7.16,-7.16,7.16,7.16,7.16,8,118,30,1548,92,93,11,RL,2,F,23,R,2025-05-13_09h54.34.207,RewSL_RL_EEG,
ping,high,downRight,DOWN,red,l,lowA,Stimuli\red_bar1.png,Stimuli\red_bar1.png,Stimuli\ping.png,downLeft,lowB,midRight,lowC,midLeft,upLeft,upRight,4,rew_high,m,,,,,0,93,93,2,,,0.6,0.7,exp,m,1,0.62943990000349,7.16,-7.16,-7.16,-7.16,10.14,0,-10.14,0,-7.16,7.16,7.16,7.16,8,248,31,1648,93,94,11,RL,2,F,23,R,2025-05-13_09h54.34.207,RewSL_RL_EEG,
ping,lowC,midLeft,DOWN,green,l,lowA,Stimuli\green_bar1.png,Stimuli\green_bar1.png,Stimuli\ping.png,downLeft,lowB,midRight,high,downRight,upLeft,upRight,4,rew_low,m,,,,,0,94,94,75,,,0.4,0.8,exp,z,0,0.6445434000052046,-10.14,0,-7.16,-7.16,10.14,0,7.16,-7.16,-7.16,7.16,7.16,7.16,8,218,30,1648,94,95,11,RL,2,F,23,R,2025-05-13_09h54.34.207,RewSL_RL_EEG,
ping,high,downRight,UP,red,r,lowA,Stimuli\red_bar1.png,Stimuli\red_bar1.png,Stimuli\ping.png,downLeft,lowB,midRight,lowC,midLeft,upLeft,upRight,4,rew_high,z,,,,,0,95,95,20,,,0.4,0.7,exp,m,0,0.9818010000017239,7.16,-7.16,-7.16,-7.16,10.14,0,-10.14,0,-7.16,7.16,7.16,7.16,8,148,31,1648,95,96,11,RL,2,F,23,R,2025-05-13_09h54.34.207,RewSL_RL_EEG,
ping,lowB,midRight,DOWN,red,r,lowA,Stimuli\red_bar1.png,Stimuli\red_bar1.png,Stimuli\ping.png,downLeft,high,downRight,lowC,midLeft,upLeft,upRight,4,rew_low,m,,,,,0,96,96,62,,,0.6,0.7,exp,m,1,0.971668000012869,10.14,0,-7.16,-7.16,7.16,-7.16,-10.14,0,-7.16,7.16,7.16,7.16,8,228,30,1649,96,97,11,RL,2,F,23,R,2025-05-13_09h54.34.207,RewSL_RL_EEG,
ping,lowA,downLeft,DOWN,red,r,high,Stimuli\red_bar1.png,Stimuli\red_bar1.png,Stimuli\ping.png,downRight,lowB,midRight,lowC,midLeft,upLeft,upRight,4,rew_low,m,,,,,0,97,97,30,,,0.5,0.7,exp,m,1,0.7544721000012942,-7.16,-7.16,7.16,-7.16,10.14,0,-10.14,0,-7.16,7.16,7.16,7.16,8,238,30,1650,97,98,11,RL,2,F,23,R,2025-05-13_09h54.34.207,RewSL_RL_EEG,
ping,lowB,midRight,DOWN,green,l,lowA,Stimuli\green_bar1.png,Stimuli\green_bar1.png,Stimuli\ping.png,downLeft,high,downRight,lowC,midLeft,upLeft,upRight,4,rew_low,m,,,,,0,98,98,59,,,0.4,0.6,exp,m,1,0.6956400000053691,10.14,0,-7.16,-7.16,7.16,-7.16,-10.14,0,-7.16,7.16,7.16,7.16,8,228,30,1651,98,99,11,RL,2,F,23,R,2025-05-13_09h54.34.207,RewSL_RL_EEG,
ping,lowC,midLeft,DOWN,green,r,lowA,Stimuli\green_bar1.png,Stimuli\green_bar1.png,Stimuli\ping.png,downLeft,lowB,midRight,high,downRight,upLeft,upRight,4,rew_low,m,,,,,0,99,99,79,,,0.6,0.6,exp,m,1,0.6870925999974133,-10.14,0,-7.16,-7.16,10.14,0,7.16,-7.16,-7.16,7.16,7.16,7.16,8,218,30,1652,99,100,11,RL,2,F,23,R,2025-05-13_09h54.34.207,RewSL_RL_EEG,
ping,high,midLeft,UP,green,l,lowA,Stimuli\green_bar1.png,Stimuli\green_bar1.png,Stimuli\ping.png,midRight,lowB,downLeft,lowC,downRight,upLeft,upRight,1,rew_high,z,,,,,0,0,0,17,,,0.6,0.7,exp,z,1,0.654019800000242,-10.14,0,10.14,0,-7.16,-7.16,7.16,-7.16,-7.16,7.16,7.16,7.16,2,112,31,1752,100,101,11,RL,2,F,23,R,2025-05-13_09h54.34.207,RewSL_RL_EEG,
ping,lowC,downRight,DOWN,red,r,lowA,Stimuli\red_bar1.png,Stimuli\red_bar1.png,Stimuli\ping.png,midRight,lowB,downLeft,high,midLeft,upLeft,upRight,1,rew_low,m,,,,,0,1,1,78,,,0.4,0.6,exp,m,1,0.7711351000034483,7.16,-7.16,10.14,0,-7.16,-7.16,-10.14,0,-7.16,7.16,7.16,7.16,2,242,30,1753,101,102,11,RL,2,F,23,R,2025-05-13_09h54.34.207,RewSL_RL_EEG,
ping,lowA,midRight,UP,green,l,high,Stimuli\green_bar1.png,Stimuli\green_bar1.png,Stimuli\ping.png,midLeft,lowB,downLeft,lowC,downRight,upLeft,upRight,1,rew_low,z,,,,,0,2,2,33,,,0.5,0.7,exp,m,0,0.7800033000094118,10.14,0,-10.14,0,-7.16,-7.16,7.16,-7.16,-7.16,7.16,7.16,7.16,2,122,30,1753,102,103,11,RL,2,F,23,R,2025-05-13_09h54.34.207,RewSL_RL_EEG,
ping,lowC,downRight,DOWN,red,r,lowA,Stimuli\red_bar1.png,Stimuli\red_bar1.png,Stimuli\ping.png,midRight,lowB,downLeft,high,midLeft,upLeft,upRight,1,rew_low,m,,,,,0,3,3,86,,,0.5,0.7,exp,m,1,0.7204193000070518,7.16,-7.16,10.14,0,-7.16,-7.16,-10.14,0,-7.16,7.16,7.16,7.16,2,242,30,1754,103,104,11,RL,2,F,23,R,2025-05-13_09h54.34.207,RewSL_RL_EEG,
ping,lowB,downLeft,UP,green,r,lowA,Stimuli\green_bar1.png,Stimuli\green_bar1.png,Stimuli\ping.png,midRight,high,midLeft,lowC,downRight,upLeft,upRight,1,rew_low,z,,,,,0,4,4,69,,,0.6,0.7,exp,m,0,0.9044125999935204,-7.16,-7.16,10.14,0,-10.14,0,7.16,-7.16,-7.16,7.16,7.16,7.16,2,132,30,1754,104,105,11,RL,2,F,23,R,2025-05-13_09h54.34.207,RewSL_RL_EEG,
ping,high,midLeft,UP,red,l,lowA,Stimuli\red_bar1.png,Stimuli\red_bar1.png,Stimuli\ping.png,midRight,lowB,downLeft,lowC,downRight,upLeft,upRight,1,rew_high,z,,,,,0,5,5,0,,,0.5,0.7,exp,z,1,0.7115454000013415,-10.14,0,10.14,0,-7.16,-7.16,7.16,-7.16,-7.16,7.16,7.16,7.16,2,112,31,1854,105,106,11,RL,2,F,23,R,2025-05-13_09h54.34.207,RewSL_RL_EEG,
ping,lowA,midRight,UP,red,l,high,Stimuli\red_bar1.png,Stimuli\red_bar1.png,Stimuli\ping.png,midLeft,lowB,downLeft,lowC,downRight,upLeft,upRight,1,rew_low,z,,,,,0,6,6,32,,,0.6,0.7,exp,z,1,0.620718099991791,10.14,0,-10.14,0,-7.16,-7.16,7.16,-7.16,-7.16,7.16,7.16,7.16,2,122,30,1855,106,107,11,RL,2,F,23,R,2025-05-13_09h54.34.207,RewSL_RL_EEG,
ping,high,midLeft,UP,green,r,lowA,Stimuli\green_bar1.png,Stimuli\green_bar1.png,Stimuli\ping.png,midRight,lowB,downLeft,lowC,downRight,upLeft,upRight,1,rew_high,z,,,,,0,7,7,13,,,0.5,0.7,exp,z,1,0.7448221999948146,-10.14,0,10.14,0,-7.16,-7.16,7.16,-7.16,-7.16,7.16,7.16,7.16,2,112,31,1955,107,108,11,RL,2,F,23,R,2025-05-13_09h54.34.207,RewSL_RL_EEG,
ping,lowC,downRight,UP,red,l,lowA,Stimuli\red_bar1.png,Stimuli\red_bar1.png,Stimuli\ping.png,midRight,lowB,downLeft,high,midLeft,upLeft,upRight,1,rew_low,z,,,,,0,8,8,88,,,0.4,0.6,exp,m,0,0.7287276999995811,7.16,-7.16,10.14,0,-7.16,-7.16,-10.14,0,-7.16,7.16,7.16,7.16,2,142,30,1955,108,109,11,RL,2,F,23,R,2025-05-13_09h54.34.207,RewSL_RL_EEG,
ping,high,midLeft,UP,green,r,lowA,Stimuli\green_bar1.png,Stimuli\green_bar1.png,Stimuli\ping.png,midRight,lowB,downLeft,lowC,downRight,upLeft,upRight,1,rew_high,z,,,,,0,9,9,21,,,0.6,0.7,exp,z,1,0.8461945000017295,-10.14,0,10.14,0,-7.16,-7.16,7.16,-7.16,-7.16,7.16,7.16,7.16,2,112,31,2055,109,110,11,RL,2,F,23,R,2025-05-13_09h54.34.207,RewSL_RL_EEG,
ping,high,midLeft,DOWN,red,l,lowA,Stimuli\red_bar1.png,Stimuli\red_bar1.png,Stimuli\ping.png,midRight,lowB,downLeft,lowC,downRight,upLeft,upRight,1,rew_high,m,,,,,0,10,10,18,,,0.5,0.6,exp,m,1,0.7959367000003112,-10.14,0,10.14,0,-7.16,-7.16,7.16,-7.16,-7.16,7.16,7.16,7.16,2,212,31,2155,110,111,11,RL,2,F,23,R,2025-05-13_09h54.34.207,RewSL_RL_EEG,
ping,lowA,midRight,DOWN,red,l,high,Stimuli\red_bar1.png,Stimuli\red_bar1.png,Stimuli\ping.png,midLeft,lowB,downLeft,lowC,downRight,upLeft,upRight,1,rew_low,m,,,,,0,11,11,26,,,0.5,0.7,exp,m,1,0.6131622999964748,10.14,0,-10.14,0,-7.16,-7.16,7.16,-7.16,-7.16,7.16,7.16,7.16,2,222,30,2156,111,112,11,RL,2,F,23,R,2025-05-13_09h54.34.207,RewSL_RL_EEG,
ping,lowB,downLeft,DOWN,red,r,lowA,Stimuli\red_bar1.png,Stimuli\red_bar1.png,Stimuli\ping.png,midRight,high,midLeft,lowC,downRight,upLeft,upRight,1,rew_low,m,,,,,0,12,12,70,,,0.5,0.8,exp,z,0,0.9716851999983191,-7.16,-7.16,10.14,0,-10.14,0,7.16,-7.16,-7.16,7.16,7.16,7.16,2,232,30,2156,112,113,11,RL,2,F,23,R,2025-05-13_09h54.34.207,RewSL_RL_EEG,
ping,lowA,midRight,UP,green,r,high,Stimuli\green_bar1.png,Stimuli\green_bar1.png,Stimuli\ping.png,midLeft,lowB,downLeft,lowC,downRight,upLeft,upRight,1,rew_low,z,,,,,0,13,13,45,,,0.5,0.6,exp,z,1,0.790487900012522,10.14,0,-10.14,0,-7.16,-7.16,7.16,-7.16,-7.16,7.16,7.16,7.16,2,122,30,2157,113,114,11,RL,2,F,23,R,2025-05-13_09h54.34.207,RewSL_RL_EEG,
ping,lowA,midRight,DOWN,red,r,high,Stimuli\red_bar1.png,Stimuli\red_bar1.png,Stimuli\ping.png,midLeft,lowB,downLeft,lowC,downRight,upLeft,upRight,1,rew_low,m,,,,,0,14,14,38,,,0.6,0.6,exp,m,1,0.628757400001632,10.14,0,-10.14,0,-7.16,-7.16,7.16,-7.16,-7.16,7.16,7.16,7.16,2,222,30,2158,114,115,11,RL,2,F,23,R,2025-05-13_09h54.34.207,RewSL_RL_EEG,
ping,lowC,downRight,DOWN,red,l,lowA,Stimuli\red_bar1.png,Stimuli\red_bar1.png,Stimuli\ping.png,midRight,lowB,downLeft,high,midLeft,upLeft,upRight,1,rew_low,m,,,,,0,15,15,82,,,0.5,0.8,exp,m,1,0.7551792000012938,7.16,-7.16,10.14,0,-7.16,-7.16,-10.14,0,-7.16,7.16,7.16,7.16,2,242,30,2159,115,116,11,RL,2,F,23,R,2025-05-13_09h54.34.207,RewSL_RL_EEG,
ping,high,midLeft,DOWN,green,l,lowA,Stimuli\green_bar1.png,Stimuli\green_bar1.png,Stimuli\ping.png,midRight,lowB,downLeft,lowC,downRight,upLeft,upRight,1,rew_high,m,,,,,0,16,16,19,,,0.5,0.7,exp,z,0,0.729829999996582,-10.14,0,10.14,0,-7.16,-7.16,7.16,-7.16,-7.16,7.16,7.16,7.16,2,212,31,2159,116,117,11,RL,2,F,23,R,2025-05-13_09h54.34.207,RewSL_RL_EEG,
ping,high,midLeft,UP,red,l,lowA,Stimuli\red_bar1.png,Stimuli\red_bar1.png,Stimuli\ping.png,midRight,lowB,downLeft,lowC,downRight,upLeft,upRight,1,rew_high,z,,,,,0,17,17,16,,,0.5,0.7,exp,z,1,0.6539161999971839,-10.14,0,10.14,0,-7.16,-7.16,7.16,-7.16,-7.16,7.16,7.16,7.16,2,112,31,2259,117,118,11,RL,2,F,23,R,2025-05-13_09h54.34.207,RewSL_RL_EEG,
ping,lowB,downLeft,DOWN,red,l,lowA,Stimuli\red_bar1.png,Stimuli\red_bar1.png,Stimuli\ping.png,midRight,high,midLeft,lowC,downRight,upLeft,upRight,1,rew_low,m,,,,,0,18,18,74,,,0.5,0.6,exp,m,1,0.7635925999929896,-7.16,-7.16,10.14,0,-10.14,0,7.16,-7.16,-7.16,7.16,7.16,7.16,2,232,30,2260,118,119,11,RL,2,F,23,R,2025-05-13_09h54.34.207,RewSL_RL_EEG,
ping,lowA,midRight,DOWN,green,l,high,Stimuli\green_bar1.png,Stimuli\green_bar1.png,Stimuli\ping.png,midLeft,lowB,downLeft,lowC,downRight,upLeft,upRight,1,rew_low,m,,,,,0,19,19,43,,,0.4,0.8,exp,z,0,0.906548600003589,10.14,0,-10.14,0,-7.16,-7.16,7.16,-7.16,-7.16,7.16,7.16,7.16,2,222,30,2260,119,120,11,RL,2,F,23,R,2025-05-13_09h54.34.207,RewSL_RL_EEG,
ping,lowA,midRight,DOWN,green,r,high,Stimuli\green_bar1.png,Stimuli\green_bar1.png,Stimuli\ping.png,midLeft,lowB,downLeft,lowC,downRight,upLeft,upRight,1,rew_low,m,,,,,0,20,20,39,,,0.5,0.7,exp,m,1,0.7050351000070805,10.14,0,-10.14,0,-7.16,-7.16,7.16,-7.16,-7.16,7.16,7.16,7.16,2,222,30,2261,120,121,11,RL,2,F,23,R,2025-05-13_09h54.34.207,RewSL_RL_EEG,
ping,high,midLeft,DOWN,red,l,lowA,Stimuli\red_bar1.png,Stimuli\red_bar1.png,Stimuli\ping.png,midRight,lowB,downLeft,lowC,downRight,upLeft,upRight,1,rew_high,m,,,,,0,21,21,2,,,0.5,0.7,exp,m,1,0.8709208000072977,-10.14,0,10.14,0,-7.16,-7.16,7.16,-7.16,-7.16,7.16,7.16,7.16,2,212,31,2361,121,122,11,RL,2,F,23,R,2025-05-13_09h54.34.207,RewSL_RL_EEG,
ping,lowA,midRight,DOWN,red,l,high,Stimuli\red_bar1.png,Stimuli\red_bar1.png,Stimuli\ping.png,midLeft,lowB,downLeft,lowC,downRight,upLeft,upRight,1,rew_low,m,,,,,0,22,22,34,,,0.5,0.8,exp,m,1,0.6138710999948671,10.14,0,-10.14,0,-7.16,-7.16,7.16,-7.16,-7.16,7.16,7.16,7.16,2,222,30,2362,122,123,11,RL,2,F,23,R,2025-05-13_09h54.34.207,RewSL_RL_EEG,
ping,lowC,downRight,DOWN,red,l,lowA,Stimuli\red_bar1.png,Stimuli\red_bar1.png,Stimuli\ping.png,midRight,lowB,downLeft,high,midLeft,upLeft,upRight,1,rew_low,m,,,,,0,23,23,90,,,0.4,0.6,exp,m,1,0.5966112000023713,7.16,-7.16,10.14,0,-7.16,-7.16,-10.14,0,-7.16,7.16,7.16,7.16,2,242,30,2363,123,124,11,RL,2,F,23,R,2025-05-13_09h54.34.207,RewSL_RL_EEG,
ping,lowC,downRight,UP,green,r,lowA,Stimuli\green_bar1.png,Stimuli\green_bar1.png,Stimuli\ping.png,midRight,lowB,downLeft,high,midLeft,upLeft,upRight,1,rew_low,z,,,,,0,24,24,77,,,0.6,0.6,exp,m,0,0.6047388000006322,7.16,-7.16,10.14,0,-7.16,-7.16,-10.14,0,-7.16,7.16,7.16,7.16,2,142,30,2363,124,125,11,RL,2,F,23,R,2025-05-13_09h54.34.207,RewSL_RL_EEG,
ping,high,midLeft,DOWN,green,l,lowA,Stimuli\green_bar1.png,Stimuli\green_bar1.png,Stimuli\ping.png,midRight,lowB,downLeft,lowC,downRight,upLeft,upRight,1,rew_high,m,,,,,0,25,25,11,,,0.6,0.8,exp,z,0,0.7557177000126103,-10.14,0,10.14,0,-7.16,-7.16,7.16,-7.16,-7.16,7.16,7.16,7.16,2,212,31,2363,125,126,11,RL,2,F,23,R,2025-05-13_09h54.34.207,RewSL_RL_EEG,
ping,lowA,midRight,UP,green,l,high,Stimuli\green_bar1.png,Stimuli\green_bar1.png,Stimuli\ping.png,midLeft,lowB,downLeft,lowC,downRight,upLeft,upRight,1,rew_low,z,,,,,0,26,26,25,,,0.5,0.7,exp,m,0,0.7221583000064129,10.14,0,-10.14,0,-7.16,-7.16,7.16,-7.16,-7.16,7.16,7.16,7.16,2,122,30,2363,126,127,11,RL,2,F,23,R,2025-05-13_09h54.34.207,RewSL_RL_EEG,
ping,lowA,midRight,UP,green,l,high,Stimuli\green_bar1.png,Stimuli\green_bar1.png,Stimuli\ping.png,midLeft,lowB,downLeft,lowC,downRight,upLeft,upRight,1,rew_low,z,,,,,0,27,27,49,,,0.4,0.8,exp,z,1,0.6383847999968566,10.14,0,-10.14,0,-7.16,-7.16,7.16,-7.16,-7.16,7.16,7.16,7.16,2,122,30,2364,127,128,11,RL,2,F,23,R,2025-05-13_09h54.34.207,RewSL_RL_EEG,
ping,high,midLeft,UP,green,l,lowA,Stimuli\green_bar1.png,Stimuli\green_bar1.png,Stimuli\ping.png,midRight,lowB,downLeft,lowC,downRight,upLeft,upRight,1,rew_high,z,,,,,0,28,28,9,,,0.6,0.8,exp,z,1,0.7305228999903193,-10.14,0,10.14,0,-7.16,-7.16,7.16,-7.16,-7.16,7.16,7.16,7.16,2,112,31,2464,128,129,11,RL,2,F,23,R,2025-05-13_09h54.34.207,RewSL_RL_EEG,
ping,lowA,midRight,UP,green,r,high,Stimuli\green_bar1.png,Stimuli\green_bar1.png,Stimuli\ping.png,midLeft,lowB,downLeft,lowC,downRight,upLeft,upRight,1,rew_low,z,,,,,0,29,29,37,,,0.6,0.7,exp,m,0,0.7810789999930421,10.14,0,-10.14,0,-7.16,-7.16,7.16,-7.16,-7.16,7.16,7.16,7.16,2,122,30,2464,129,130,11,RL,2,F,23,R,2025-05-13_09h54.34.207,RewSL_RL_EEG,
ping,lowC,downRight,UP,green,l,lowA,Stimuli\green_bar1.png,Stimuli\green_bar1.png,Stimuli\ping.png,midRight,lowB,downLeft,high,midLeft,upLeft,upRight,1,rew_low,z,,,,,0,30,30,81,,,0.5,0.6,exp,m,0,0.8134364999859827,7.16,-7.16,10.14,0,-7.16,-7.16,-10.14,0,-7.16,7.16,7.16,7.16,2,142,30,2464,130,131,11,RL,2,F,23,R,2025-05-13_09h54.34.207,RewSL_RL_EEG,
ping,lowB,downLeft,UP,red,l,lowA,Stimuli\red_bar1.png,Stimuli\red_bar1.png,Stimuli\ping.png,midRight,high,midLeft,lowC,downRight,upLeft,upRight,1,rew_low,z,,,,,0,31,31,72,,,0.4,0.7,exp,z,1,1.2045033000031253,-7.16,-7.16,10.14,0,-10.14,0,7.16,-7.16,-7.16,7.16,7.16,7.16,2,132,30,2465,131,132,11,RL,2,F,23,R,2025-05-13_09h54.34.207,RewSL_RL_EEG,
ping,lowB,downLeft,DOWN,green,l,lowA,Stimuli\green_bar1.png,Stimuli\green_bar1.png,Stimuli\ping.png,midRight,high,midLeft,lowC,downRight,upLeft,upRight,1,rew_low,m,,,,,0,32,32,59,,,0.5,0.8,exp,z,0,0.7891144000022905,-7.16,-7.16,10.14,0,-10.14,0,7.16,-7.16,-7.16,7.16,7.16,7.16,2,232,30,2465,132,133,11,RL,2,F,23,R,2025-05-13_09h54.34.207,RewSL_RL_EEG,
ping,lowB,downLeft,UP,green,r,lowA,Stimuli\green_bar1.png,Stimuli\green_bar1.png,Stimuli\ping.png,midRight,high,midLeft,lowC,downRight,upLeft,upRight,1,rew_low,z,,,,,0,33,33,53,,,0.5,0.8,exp,m,0,0.845665500004543,-7.16,-7.16,10.14,0,-10.14,0,7.16,-7.16,-7.16,7.16,7.16,7.16,2,132,30,2465,133,134,11,RL,2,F,23,R,2025-05-13_09h54.34.207,RewSL_RL_EEG,
ping,lowC,downRight,DOWN,red,r,lowA,Stimuli\red_bar1.png,Stimuli\red_bar1.png,Stimuli\ping.png,midRight,lowB,downLeft,high,midLeft,upLeft,upRight,1,rew_low,m,,,,,0,34,34,98,,,0.5,0.7,exp,z,0,0.7857685000053607,7.16,-7.16,10.14,0,-7.16,-7.16,-10.14,0,-7.16,7.16,7.16,7.16,2,242,30,2465,134,135,11,RL,2,F,23,R,2025-05-13_09h54.34.207,RewSL_RL_EEG,
ping,lowC,downRight,UP,red,r,lowA,Stimuli\red_bar1.png,Stimuli\red_bar1.png,Stimuli\ping.png,midRight,lowB,downLeft,high,midLeft,upLeft,upRight,1,rew_low,z,,,,,0,35,35,76,,,0.6,0.8,exp,m,0,0.8629285000060918,7.16,-7.16,10.14,0,-7.16,-7.16,-10.14,0,-7.16,7.16,7.16,7.16,2,142,30,2465,135,136,11,RL,2,F,23,R,2025-05-13_09h54.34.207,RewSL_RL_EEG,
ping,lowB,downLeft,DOWN,green,l,lowA,Stimuli\green_bar1.png,Stimuli\green_bar1.png,Stimuli\ping.png,midRight,high,midLeft,lowC,downRight,upLeft,upRight,1,rew_low,m,,,,,0,36,36,67,,,0.6,0.6,exp,m,1,1.16232950000267,-7.16,-7.16,10.14,0,-10.14,0,7.16,-7.16,-7.16,7.16,7.16,7.16,2,232,30,2466,136,137,11,RL,2,F,23,R,2025-05-13_09h54.34.207,RewSL_RL_EEG,
ping,lowB,downLeft,UP,green,l,lowA,Stimuli\green_bar1.png,Stimuli\green_bar1.png,Stimuli\ping.png,midRight,high,midLeft,lowC,downRight,upLeft,upRight,1,rew_low,z,,,,,0,37,37,57,,,0.5,0.7,exp,z,1,0.6214282000000821,-7.16,-7.16,10.14,0,-10.14,0,7.16,-7.16,-7.16,7.16,7.16,7.16,2,132,30,2467,137,138,11,RL,2,F,23,R,2025-05-13_09h54.34.207,RewSL_RL_EEG,
ping,lowA,midRight,DOWN,red,r,high,Stimuli\red_bar1.png,Stimuli\red_bar1.png,Stimuli\ping.png,midLeft,lowB,downLeft,lowC,downRight,upLeft,upRight,1,rew_low,m,,,,,0,38,38,30,,,0.6,0.6,exp,m,1,0.7624198999983491,10.14,0,-10.14,0,-7.16,-7.16,7.16,-7.16,-7.16,7.16,7.16,7.16,2,222,30,2468,138,139,11,RL,2,F,23,R,2025-05-13_09h54.34.207,RewSL_RL_EEG,
ping,lowB,downLeft,DOWN,green,l,lowA,Stimuli\green_bar1.png,Stimuli\green_bar1.png,Stimuli\ping.png,midRight,high,midLeft,lowC,downRight,upLeft,upRight,1,rew_low,m,,,,,0,39,39,51,,,0.6,0.7,exp,m,1,0.778598900011275,-7.16,-7.16,10.14,0,-10.14,0,7.16,-7.16,-7.16,7.16,7.16,7.16,2,232,30,2469,139,140,11,RL,2,F,23,R,2025-05-13_09h54.34.207,RewSL_RL_EEG,
ping,lowC,downRight,DOWN,red,r,lowA,Stimuli\red_bar1.png,Stimuli\red_bar1.png,Stimuli\ping.png,midRight,lowB,downLeft,high,midLeft,upLeft,upRight,1,rew_low,m,,,,,0,40,40,94,,,0.5,0.7,exp,z,0,0.8368467999971472,7.16,-7.16,10.14,0,-7.16,-7.16,-10.14,0,-7.16,7.16,7.16,7.16,2,242,30,2469,140,141,11,RL,2,F,23,R,2025-05-13_09h54.34.207,RewSL_RL_EEG,
ping,lowC,downRight,DOWN,green,l,lowA,Stimuli\green_bar1.png,Stimuli\green_bar1.png,Stimuli\ping.png,midRight,lowB,downLeft,high,midLeft,upLeft,upRight,1,rew_low,m,,,,,0,41,41,91,,,0.5,0.7,exp,m,1,0.6526519000035478,7.16,-7.16,10.14,0,-7.16,-7.16,-10.14,0,-7.16,7.16,7.16,7.16,2,242,30,2470,141,142,11,RL,2,F,23,R,2025-05-13_09h54.34.207,RewSL_RL_EEG,
ping,lowB,downLeft,DOWN,red,r,lowA,Stimuli\red_bar1.png,Stimuli\red_bar1.png,Stimuli\ping.png,midRight,high,midLeft,lowC,downRight,upLeft,upRight,1,rew_low,m,,,,,0,42,42,62,,,0.5,0.7,exp,m,1,0.6459957999904873,-7.16,-7.16,10.14,0,-10.14,0,7.16,-7.16,-7.16,7.16,7.16,7.16,2,232,30,2471,142,143,11,RL,2,F,23,R,2025-05-13_09h54.34.207,RewSL_RL_EEG,
ping,lowB,downLeft,UP,red,l,lowA,Stimuli\red_bar1.png,Stimuli\red_bar1.png,Stimuli\ping.png,midRight,high,midLeft,lowC,downRight,upLeft,upRight,1,rew_low,z,,,,,0,43,43,56,,,0.6,0.7,exp,z,1,0.5963016000023345,-7.16,-7.16,10.14,0,-10.14,0,7.16,-7.16,-7.16,7.16,7.16,7.16,2,132,30,2472,143,144,11,RL,2,F,23,R,2025-05-13_09h54.34.207,RewSL_RL_EEG,
ping,lowC,downRight,UP,green,l,lowA,Stimuli\green_bar1.png,Stimuli\green_bar1.png,Stimuli\ping.png,midRight,lowB,downLeft,high,midLeft,upLeft,upRight,1,rew_low,z,,,,,0,44,44,97,,,0.4,0.6,exp,m,0,0.7046805999998469,7.16,-7.16,10.14,0,-7.16,-7.16,-10.14,0,-7.16,7.16,7.16,7.16,2,142,30,2472,144,145,11,RL,2,F,23,R,2025-05-13_09h54.34.207,RewSL_RL_EEG,
ping,lowA,midRight,UP,red,r,high,Stimuli\red_bar1.png,Stimuli\red_bar1.png,Stimuli\ping.png,midLeft,lowB,downLeft,lowC,downRight,upLeft,upRight,1,rew_low,z,,,,,0,45,45,28,,,0.5,0.8,exp,z,1,0.770898099988699,10.14,0,-10.14,0,-7.16,-7.16,7.16,-7.16,-7.16,7.16,7.16,7.16,2,122,30,2473,145,146,11,RL,2,F,23,R,2025-05-13_09h54.34.207,RewSL_RL_EEG,
ping,lowC,downRight,DOWN,green,r,lowA,Stimuli\green_bar1.png,Stimuli\green_bar1.png,Stimuli\ping.png,midRight,lowB,downLeft,high,midLeft,upLeft,upRight,1,rew_low,m,,,,,0,46,46,95,,,0.4,0.8,exp,m,1,0.6538160999916727,7.16,-7.16,10.14,0,-7.16,-7.16,-10.14,0,-7.16,7.16,7.16,7.16,2,242,30,2474,146,147,11,RL,2,F,23,R,2025-05-13_09h54.34.207,RewSL_RL_EEG,
ping,lowC,downRight,UP,green,r,lowA,Stimuli\green_bar1.png,Stimuli\green_bar1.png,Stimuli\ping.png,midRight,lowB,downLeft,high,midLeft,upLeft,upRight,1,rew_low,z,,,,,0,47,47,93,,,0.6,0.7,exp,m,0,0.6308214000018779,7.16,-7.16,10.14,0,-7.16,-7.16,-10.14,0,-7.16,7.16,7.16,7.16,2,142,30,2474,147,148,11,RL,2,F,23,R,2025-05-13_09h54.34.207,RewSL_RL_EEG,
ping,lowB,downLeft,UP,red,r,lowA,Stimuli\red_bar1.png,Stimuli\red_bar1.png,Stimuli\ping.png,midRight,high,midLeft,lowC,downRight,upLeft,upRight,1,rew_low,z,,,,,0,48,48,60,,,0.5,0.8,exp,z,1,0.5536433000088437,-7.16,-7.16,10.14,0,-10.14,0,7.16,-7.16,-7.16,7.16,7.16,7.16,2,132,30,2475,148,149,11,RL,2,F,23,R,2025-05-13_09h54.34.207,RewSL_RL_EEG,
ping,lowB,downLeft,UP,red,l,lowA,Stimuli\red_bar1.png,Stimuli\red_bar1.png,Stimuli\ping.png,midRight,high,midLeft,lowC,downRight,upLeft,upRight,1,rew_low,z,,,,,0,49,49,64,,,0.5,0.7,exp,z,1,0.49629330000607297,-7.16,-7.16,10.14,0,-10.14,0,7.16,-7.16,-7.16,7.16,7.16,7.16,2,132,30,2476,149,150,11,RL,2,F,23,R,2025-05-13_09h54.34.207,RewSL_RL_EEG,
ping,high,midLeft,UP,red,r,lowA,Stimuli\red_bar1.png,Stimuli\red_bar1.png,Stimuli\ping.png,midRight,lowB,downLeft,lowC,downRight,upLeft,upRight,1,rew_high,z,,,,,0,50,50,20,,,0.4,0.8,exp,z,1,0.9384092999971472,-10.14,0,10.14,0,-7.16,-7.16,7.16,-7.16,-7.16,7.16,7.16,7.16,2,112,31,2576,150,151,11,RL,2,F,23,R,2025-05-13_09h54.34.207,RewSL_RL_EEG,
ping,lowC,downRight,UP,green,l,lowA,Stimuli\green_bar1.png,Stimuli\green_bar1.png,Stimuli\ping.png,midRight,lowB,downLeft,high,midLeft,upLeft,upRight,1,rew_low,z,,,,,0,51,51,89,,,0.6,0.8,exp,m,0,0.8029538000118919,7.16,-7.16,10.14,0,-7.16,-7.16,-10.14,0,-7.16,7.16,7.16,7.16,2,142,30,2576,151,152,11,RL,2,F,23,R,2025-05-13_09h54.34.207,RewSL_RL_EEG,
ping,lowA,midRight,UP,red,r,high,Stimuli\red_bar1.png,Stimuli\red_bar1.png,Stimuli\ping.png,midLeft,lowB,downLeft,lowC,downRight,upLeft,upRight,1,rew_low,z,,,,,0,52,52,36,,,0.5,0.7,exp,z,1,0.5874878999893554,10.14,0,-10.14,0,-7.16,-7.16,7.16,-7.16,-7.16,7.16,7.16,7.16,2,122,30,2577,152,153,11,RL,2,F,23,R,2025-05-13_09h54.34.207,RewSL_RL_EEG,
ping,lowB,downLeft,DOWN,red,r,lowA,Stimuli\red_bar1.png,Stimuli\red_bar1.png,Stimuli\ping.png,midRight,high,midLeft,lowC,downRight,upLeft,upRight,1,rew_low,m,,,,,0,53,53,54,,,0.5,0.6,exp,m,1,0.5881535999942571,-7.16,-7.16,10.14,0,-10.14,0,7.16,-7.16,-7.16,7.16,7.16,7.16,2,232,30,2578,153,154,11,RL,2,F,23,R,2025-05-13_09h54.34.207,RewSL_RL_EEG,
ping,lowC,downRight,DOWN,green,r,lowA,Stimuli\green_bar1.png,Stimuli\green_bar1.png,Stimuli\ping.png,midRight,lowB,downLeft,high,midLeft,upLeft,upRight,1,rew_low,m,,,,,0,54,54,87,,,0.5,0.7,exp,m,1,0.8459925000061048,7.16,-7.16,10.14,0,-7.16,-7.16,-10.14,0,-7.16,7.16,7.16,7.16,2,242,30,2579,154,155,11,RL,2,F,23,R,2025-05-13_09h54.34.207,RewSL_RL_EEG,
ping,lowC,downRight,DOWN,green,l,lowA,Stimuli\green_bar1.png,Stimuli\green_bar1.png,Stimuli\ping.png,midRight,lowB,downLeft,high,midLeft,upLeft,upRight,1,rew_low,m,,,,,0,55,55,75,,,0.5,0.8,exp,m,1,0.6880046999867773,7.16,-7.16,10.14,0,-7.16,-7.16,-10.14,0,-7.16,7.16,7.16,7.16,2,242,30,2580,155,156,11,RL,2,F,23,R,2025-05-13_09h54.34.207,RewSL_RL_EEG,
ping,lowA,midRight,UP,red,l,high,Stimuli\red_bar1.png,Stimuli\red_bar1.png,Stimuli\ping.png,midLeft,lowB,downLeft,lowC,downRight,upLeft,upRight,1,rew_low,z,,,,,0,56,56,40,,,0.4,0.6,exp,z,1,0.6045459000015398,10.14,0,-10.14,0,-7.16,-7.16,7.16,-7.16,-7.16,7.16,7.16,7.16,2,122,30,2581,156,157,11,RL,2,F,23,R,2025-05-13_09h54.34.207,RewSL_RL_EEG,
ping,lowA,midRight,DOWN,red,l,high,Stimuli\red_bar1.png,Stimuli\red_bar1.png,Stimuli\ping.png,midLeft,lowB,downLeft,lowC,downRight,upLeft,upRight,1,rew_low,m,,,,,0,57,57,42,,,0.5,0.7,exp,m,1,0.5796408000023803,10.14,0,-10.14,0,-7.16,-7.16,7.16,-7.16,-7.16,7.16,7.16,7.16,2,222,30,2582,157,158,11,RL,2,F,23,R,2025-05-13_09h54.34.207,RewSL_RL_EEG,
ping,lowC,downRight,DOWN,green,r,lowA,Stimuli\green_bar1.png,Stimuli\green_bar1.png,Stimuli\ping.png,midRight,lowB,downLeft,high,midLeft,upLeft,upRight,1,rew_low,m,,,,,0,58,58,99,,,0.5,0.6,exp,m,1,0.5958673999994062,7.16,-7.16,10.14,0,-7.16,-7.16,-10.14,0,-7.16,7.16,7.16,7.16,2,242,30,2583,158,159,11,RL,2,F,23,R,2025-05-13_09h54.34.207,RewSL_RL_EEG,
ping,high,midLeft,DOWN,green,r,lowA,Stimuli\green_bar1.png,Stimuli\green_bar1.png,Stimuli\ping.png,midRight,lowB,downLeft,lowC,downRight,upLeft,upRight,1,rew_high,m,,,,,0,59,59,15,,,0.5,0.8,exp,z,0,0.7966335000091931,-10.14,0,10.14,0,-7.16,-7.16,7.16,-7.16,-7.16,7.16,7.16,7.16,2,212,31,2583,159,160,11,RL,2,F,23,R,2025-05-13_09h54.34.207,RewSL_RL_EEG,
ping,lowA,midRight,UP,red,l,high,Stimuli\red_bar1.png,Stimuli\red_bar1.png,Stimuli\ping.png,midLeft,lowB,downLeft,lowC,downRight,upLeft,upRight,1,rew_low,z,,,,,0,60,60,48,,,0.4,0.8,exp,m,0,0.6636355999944499,10.14,0,-10.14,0,-7.16,-7.16,7.16,-7.16,-7.16,7.16,7.16,7.16,2,122,30,2583,160,161,11,RL,2,F,23,R,2025-05-13_09h54.34.207,RewSL_RL_EEG,
ping,high,midLeft,UP,green,l,lowA,Stimuli\green_bar1.png,Stimuli\green_bar1.png,Stimuli\ping.png,midRight,lowB,downLeft,lowC,downRight,upLeft,upRight,1,rew_high,z,,,,,0,61,61,1,,,0.4,0.6,exp,z,1,0.5961337000044296,-10.14,0,10.14,0,-7.16,-7.16,7.16,-7.16,-7.16,7.16,7.16,7.16,2,112,31,2683,161,162,11,RL,2,F,23,R,2025-05-13_09h54.34.207,RewSL_RL_EEG,
ping,high,midLeft,UP,red,r,lowA,Stimuli\red_bar1.png,Stimuli\red_bar1.png,Stimuli\ping.png,midRight,lowB,downLeft,lowC,downRight,upLeft,upRight,1,rew_high,z,,,,,0,62,62,12,,,0.6,0.8,exp,z,1,0.528554600008647,-10.14,0,10.14,0,-7.16,-7.16,7.16,-7.16,-7.16,7.16,7.16,7.16,2,112,31,2783,162,163,11,RL,2,F,23,R,2025-05-13_09h54.34.207,RewSL_RL_EEG,
ping,lowA,midRight,DOWN,green,l,high,Stimuli\green_bar1.png,Stimuli\green_bar1.png,Stimuli\ping.png,midLeft,lowB,downLeft,lowC,downRight,upLeft,upRight,1,rew_low,m,,,,,0,63,63,35,,,0.6,0.7,exp,m,1,0.5874282000004314,10.14,0,-10.14,0,-7.16,-7.16,7.16,-7.16,-7.16,7.16,7.16,7.16,2,222,30,2784,163,164,11,RL,2,F,23,R,2025-05-13_09h54.34.207,RewSL_RL_EEG,
ping,lowA,midRight,UP,green,r,high,Stimuli\green_bar1.png,Stimuli\green_bar1.png,Stimuli\ping.png,midLeft,lowB,downLeft,lowC,downRight,upLeft,upRight,1,rew_low,z,,,,,0,64,64,29,,,0.4,0.7,exp,z,1,0.6299550999974599,10.14,0,-10.14,0,-7.16,-7.16,7.16,-7.16,-7.16,7.16,7.16,7.16,2,122,30,2785,164,165,11,RL,2,F,23,R,2025-05-13_09h54.34.207,RewSL_RL_EEG,
ping,lowA,midRight,DOWN,green,r,high,Stimuli\green_bar1.png,Stimuli\green_bar1.png,Stimuli\ping.png,midLeft,lowB,downLeft,lowC,downRight,upLeft,upRight,1,rew_low,m,,,,,0,65,65,31,,,0.6,0.7,exp,z,0,0.9133316999941599,10.14,0,-10.14,0,-7.16,-7.16,7.16,-7.16,-7.16,7.16,7.16,7.16,2,222,30,2785,165,166,11,RL,2,F,23,R,2025-05-13_09h54.34.207,RewSL_RL_EEG,
ping,lowB,downLeft,DOWN,green,r,lowA,Stimuli\green_bar1.png,Stimuli\green_bar1.png,Stimuli\ping.png,midRight,high,midLeft,lowC,downRight,upLeft,upRight,1,rew_low,m,,,,,0,66,66,55,,,0.6,0.6,exp,m,1,0.7214306999958353,-7.16,-7.16,10.14,0,-10.14,0,7.16,-7.16,-7.16,7.16,7.16,7.16,2,232,30,2786,166,167,11,RL,2,F,23,R,2025-05-13_09h54.34.207,RewSL_RL_EEG,
ping,high,midLeft,DOWN,green,l,lowA,Stimuli\green_bar1.png,Stimuli\green_bar1.png,Stimuli\ping.png,midRight,lowB,downLeft,lowC,downRight,upLeft,upRight,1,rew_high,m,,,,,0,67,67,3,,,0.5,0.7,exp,z,0,0.7217781000072137,-10.14,0,10.14,0,-7.16,-7.16,7.16,-7.16,-7.16,7.16,7.16,7.16,2,212,31,2786,167,168,11,RL,2,F,23,R,2025-05-13_09h54.34.207,RewSL_RL_EEG,
ping,lowB,downLeft,DOWN,red,l,lowA,Stimuli\red_bar1.png,Stimuli\red_bar1.png,Stimuli\ping.png,midRight,high,midLeft,lowC,downRight,upLeft,upRight,1,rew_low,m,,,,,0,68,68,58,,,0.5,0.7,exp,m,1,0.903758900007233,-7.16,-7.16,10.14,0,-10.14,0,7.16,-7.16,-7.16,7.16,7.16,7.16,2,232,30,2787,168,169,11,RL,2,F,23,R,2025-05-13_09h54.34.207,RewSL_RL_EEG,
ping,lowB,downLeft,UP,green,l,lowA,Stimuli\green_bar1.png,Stimuli\green_bar1.png,Stimuli\ping.png,midRight,high,midLeft,lowC,downRight,upLeft,upRight,1,rew_low,z,,,,,0,69,69,65,,,0.6,0.6,exp,m,0,0.6384229999966919,-7.16,-7.16,10.14,0,-10.14,0,7.16,-7.16,-7.16,7.16,7.16,7.16,2,132,30,2787,169,170,11,RL,2,F,23,R,2025-05-13_09h54.34.207,RewSL_RL_EEG,
ping,high,midLeft,UP,red,l,lowA,Stimuli\red_bar1.png,Stimuli\red_bar1.png,Stimuli\ping.png,midRight,lowB,downLeft,lowC,downRight,upLeft,upRight,1,rew_high,z,,,,,0,70,70,8,,,0.6,0.6,exp,z,1,0.8711266000027535,-10.14,0,10.14,0,-7.16,-7.16,7.16,-7.16,-7.16,7.16,7.16,7.16,2,112,31,2887,170,171,11,RL,2,F,23,R,2025-05-13_09h54.34.207,RewSL_RL_EEG,
ping,lowC,downRight,DOWN,green,r,lowA,Stimuli\green_bar1.png,Stimuli\green_bar1.png,Stimuli\ping.png,midRight,lowB,downLeft,high,midLeft,upLeft,upRight,1,rew_low,m,,,,,0,71,71,79,,,0.6,0.8,exp,m,1,0.6463380999921355,7.16,-7.16,10.14,0,-7.16,-7.16,-10.14,0,-7.16,7.16,7.16,7.16,2,242,30,2888,171,172,11,RL,2,F,23,R,2025-05-13_09h54.34.207,RewSL_RL_EEG,
ping,lowA,midRight,DOWN,red,r,high,Stimuli\red_bar1.png,Stimuli\red_bar1.png,Stimuli\ping.png,midLeft,lowB,downLeft,lowC,downRight,upLeft,upRight,1,rew_low,m,,,,,0,72,72,46,,,0.4,0.7,exp,m,1,0.671452099995804,10.14,0,-10.14,0,-7.16,-7.16,7.16,-7.16,-7.16,7.16,7.16,7.16,2,222,30,2889,172,173,11,RL,2,F,23,R,2025-05-13_09h54.34.207,RewSL_RL_EEG,
ping,lowB,downLeft,DOWN,green,r,lowA,Stimuli\green_bar1.png,Stimuli\green_bar1.png,Stimuli\ping.png,midRight,high,midLeft,lowC,downRight,upLeft,upRight,1,rew_low,m,,,,,0,73,73,63,,,0.5,0.7,exp,m,1,0.6377781000046525,-7.16,-7.16,10.14,0,-10.14,0,7.16,-7.16,-7.16,7.16,7.16,7.16,2,232,30,2890,173,174,11,RL,2,F,23,R,2025-05-13_09h54.34.207,RewSL_RL_EEG,
ping,lowC,downRight,UP,red,r,lowA,Stimuli\red_bar1.png,Stimuli\red_bar1.png,Stimuli\ping.png,midRight,lowB,downLeft,high,midLeft,upLeft,upRight,1,rew_low,z,,,,,0,74,74,92,,,0.5,0.8,exp,z,1,0.9709110999974655,7.16,-7.16,10.14,0,-7.16,-7.16,-10.14,0,-7.16,7.16,7.16,7.16,2,142,30,2891,174,175,11,RL,2,F,23,R,2025-05-13_09h54.34.207,RewSL_RL_EEG,
ping,lowA,midRight,UP,red,r,high,Stimuli\red_bar1.png,Stimuli\red_bar1.png,Stimuli\ping.png,midLeft,lowB,downLeft,lowC,downRight,upLeft,upRight,1,rew_low,z,,,,,0,75,75,44,,,0.5,0.6,exp,z,1,0.5800069000106305,10.14,0,-10.14,0,-7.16,-7.16,7.16,-7.16,-7.16,7.16,7.16,7.16,2,122,30,2892,175,176,11,RL,2,F,23,R,2025-05-13_09h54.34.207,RewSL_RL_EEG,
ping,lowB,downLeft,UP,red,r,lowA,Stimuli\red_bar1.png,Stimuli\red_bar1.png,Stimuli\ping.png,midRight,high,midLeft,lowC,downRight,upLeft,upRight,1,rew_low,z,,,,,0,76,76,68,,,0.5,0.7,exp,m,0,0.771074200005387,-7.16,-7.16,10.14,0,-10.14,0,7.16,-7.16,-7.16,7.16,7.16,7.16,2,132,30,2892,176,177,11,RL,2,F,23,R,2025-05-13_09h54.34.207,RewSL_RL_EEG,
ping,high,midLeft,DOWN,red,r,lowA,Stimuli\red_bar1.png,Stimuli\red_bar1.png,Stimuli\ping.png,midRight,lowB,downLeft,lowC,downRight,upLeft,upRight,1,rew_high,m,,,,,0,77,77,14,,,0.5,0.7,exp,m,1,0.6799858999875141,-10.14,0,10.14,0,-7.16,-7.16,7.16,-7.16,-7.16,7.16,7.16,7.16,2,212,31,2992,177,178,11,RL,2,F,23,R,2025-05-13_09h54.34.207,RewSL_RL_EEG,
ping,lowB,downLeft,DOWN,green,r,lowA,Stimuli\green_bar1.png,Stimuli\green_bar1.png,Stimuli\ping.png,midRight,high,midLeft,lowC,downRight,upLeft,upRight,1,rew_low,m,,,,,0,78,78,71,,,0.5,0.7,exp,m,1,0.9789869999949588,-7.16,-7.16,10.14,0,-10.14,0,7.16,-7.16,-7.16,7.16,7.16,7.16,2,232,30,2993,178,179,11,RL,2,F,23,R,2025-05-13_09h54.34.207,RewSL_RL_EEG,
ping,lowB,downLeft,DOWN,red,l,lowA,Stimuli\red_bar1.png,Stimuli\red_bar1.png,Stimuli\ping.png,midRight,high,midLeft,lowC,downRight,upLeft,upRight,1,rew_low,m,,,,,0,79,79,66,,,0.6,0.7,exp,m,1,1.0040910999960033,-7.16,-7.16,10.14,0,-10.14,0,7.16,-7.16,-7.16,7.16,7.16,7.16,2,232,30,2994,179,180,11,RL,2,F,23,R,2025-05-13_09h54.34.207,RewSL_RL_EEG,
ping,lowB,downLeft,UP,green,r,lowA,Stimuli\green_bar1.png,Stimuli\green_bar1.png,Stimuli\ping.png,midRight,high,midLeft,lowC,downRight,upLeft,upRight,1,rew_low,z,,,,,0,80,80,61,,,0.6,0.8,exp,z,1,0.6298626000061631,-7.16,-7.16,10.14,0,-10.14,0,7.16,-7.16,-7.16,7.16,7.16,7.16,2,132,30,2995,180,181,11,RL,2,F,23,R,2025-05-13_09h54.34.207,RewSL_RL_EEG,
ping,high,midLeft,DOWN,green,r,lowA,Stimuli\green_bar1.png,Stimuli\green_bar1.png,Stimuli\ping.png,midRight,lowB,downLeft,lowC,downRight,upLeft,upRight,1,rew_high,m,,,,,0,81,81,7,,,0.4,0.8,exp,z,0,0.5876262999954633,-10.14,0,10.14,0,-7.16,-7.16,7.16,-7.16,-7.16,7.16,7.16,7.16,2,212,31,2995,181,182,11,RL,2,F,23,R,2025-05-13_09h54.34.207,RewSL_RL_EEG,
ping,lowA,midRight,UP,green,l,high,Stimuli\green_bar1.png,Stimuli\green_bar1.png,Stimuli\ping.png,midLeft,lowB,downLeft,lowC,downRight,upLeft,upRight,1,rew_low,z,,,,,0,82,82,41,,,0.5,0.8,exp,m,0,0.5966711999935796,10.14,0,-10.14,0,-7.16,-7.16,7.16,-7.16,-7.16,7.16,7.16,7.16,2,122,30,2995,182,183,11,RL,2,F,23,R,2025-05-13_09h54.34.207,RewSL_RL_EEG,
ping,high,midLeft,DOWN,red,l,lowA,Stimuli\red_bar1.png,Stimuli\red_bar1.png,Stimuli\ping.png,midRight,lowB,downLeft,lowC,downRight,upLeft,upRight,1,rew_high,m,,,,,0,83,83,10,,,0.4,0.7,exp,m,1,0.6036250999895856,-10.14,0,10.14,0,-7.16,-7.16,7.16,-7.16,-7.16,7.16,7.16,7.16,2,212,31,3095,183,184,11,RL,2,F,23,R,2025-05-13_09h54.34.207,RewSL_RL_EEG,
ping,lowB,downLeft,UP,red,r,lowA,Stimuli\red_bar1.png,Stimuli\red_bar1.png,Stimuli\ping.png,midRight,high,midLeft,lowC,downRight,upLeft,upRight,1,rew_low,z,,,,,0,84,84,52,,,0.4,0.7,exp,z,1,0.7789749999938067,-7.16,-7.16,10.14,0,-10.14,0,7.16,-7.16,-7.16,7.16,7.16,7.16,2,132,30,3096,184,185,11,RL,2,F,23,R,2025-05-13_09h54.34.207,RewSL_RL_EEG,
ping,lowC,downRight,UP,green,r,lowA,Stimuli\green_bar1.png,Stimuli\green_bar1.png,Stimuli\ping.png,midRight,lowB,downLeft,high,midLeft,upLeft,upRight,1,rew_low,z,,,,,0,85,85,85,,,0.4,0.6,exp,m,0,0.9206384999997681,7.16,-7.16,10.14,0,-7.16,-7.16,-10.14,0,-7.16,7.16,7.16,7.16,2,142,30,3096,185,186,11,RL,2,F,23,R,2025-05-13_09h54.34.207,RewSL_RL_EEG,
ping,lowC,downRight,UP,red,r,lowA,Stimuli\red_bar1.png,Stimuli\red_bar1.png,Stimuli\ping.png,midRight,lowB,downLeft,high,midLeft,upLeft,upRight,1,rew_low,z,,,,,0,86,86,84,,,0.5,0.7,exp,z,1,0.7535315999994054,7.16,-7.16,10.14,0,-7.16,-7.16,-10.14,0,-7.16,7.16,7.16,7.16,2,142,30,3097,186,187,11,RL,2,F,23,R,2025-05-13_09h54.34.207,RewSL_RL_EEG,
ping,lowC,downRight,UP,red,l,lowA,Stimuli\red_bar1.png,Stimuli\red_bar1.png,Stimuli\ping.png,midRight,lowB,downLeft,high,midLeft,upLeft,upRight,1,rew_low,z,,,,,0,87,87,96,,,0.5,0.7,exp,z,1,0.9800794999900972,7.16,-7.16,10.14,0,-7.16,-7.16,-10.14,0,-7.16,7.16,7.16,7.16,2,142,30,3098,187,188,11,RL,2,F,23,R,2025-05-13_09h54.34.207,RewSL_RL_EEG,
ping,lowA,midRight,DOWN,green,l,high,Stimuli\green_bar1.png,Stimuli\green_bar1.png,Stimuli\ping.png,midLeft,lowB,downLeft,lowC,downRight,upLeft,upRight,1,rew_low,m,,,,,0,88,88,27,,,0.6,0.8,exp,z,0,0.5880241999984719,10.14,0,-10.14,0,-7.16,-7.16,7.16,-7.16,-7.16,7.16,7.16,7.16,2,222,30,3098,188,189,11,RL,2,F,23,R,2025-05-13_09h54.34.207,RewSL_RL_EEG,
ping,high,midLeft,DOWN,red,r,lowA,Stimuli\red_bar1.png,Stimuli\red_bar1.png,Stimuli\ping.png,midRight,lowB,downLeft,lowC,downRight,upLeft,upRight,1,rew_high,m,,,,,0,89,89,22,,,0.6,0.8,exp,z,0,0.6211373999976786,-10.14,0,10.14,0,-7.16,-7.16,7.16,-7.16,-7.16,7.16,7.16,7.16,2,212,31,3098,189,190,11,RL,2,F,23,R,2025-05-13_09h54.34.207,RewSL_RL_EEG,
ping,lowB,downLeft,UP,green,l,lowA,Stimuli\green_bar1.png,Stimuli\green_bar1.png,Stimuli\ping.png,midRight,high,midLeft,lowC,downRight,upLeft,upRight,1,rew_low,z,,,,,0,90,90,73,,,0.5,0.7,exp,z,1,0.7131122999999207,-7.16,-7.16,10.14,0,-10.14,0,7.16,-7.16,-7.16,7.16,7.16,7.16,2,132,30,3099,190,191,11,RL,2,F,23,R,2025-05-13_09h54.34.207,RewSL_RL_EEG,
ping,high,midLeft,UP,red,r,lowA,Stimuli\red_bar1.png,Stimuli\red_bar1.png,Stimuli\ping.png,midRight,lowB,downLeft,lowC,downRight,upLeft,upRight,1,rew_high,z,,,,,0,91,91,4,,,0.5,0.7,exp,z,1,0.8293178000021726,-10.14,0,10.14,0,-7.16,-7.16,7.16,-7.16,-7.16,7.16,7.16,7.16,2,112,31,3199,191,192,11,RL,2,F,23,R,2025-05-13_09h54.34.207,RewSL_RL_EEG,
ping,high,midLeft,DOWN,green,r,lowA,Stimuli\green_bar1.png,Stimuli\green_bar1.png,Stimuli\ping.png,midRight,lowB,downLeft,lowC,downRight,upLeft,upRight,1,rew_high,m,,,,,0,92,92,23,,,0.5,0.6,exp,m,1,0.7202317000046605,-10.14,0,10.14,0,-7.16,-7.16,7.16,-7.16,-7.16,7.16,7.16,7.16,2,212,31,3299,192,193,11,RL,2,F,23,R,2025-05-13_09h54.34.207,RewSL_RL_EEG,
ping,high,midLeft,UP,green,r,lowA,Stimuli\green_bar1.png,Stimuli\green_bar1.png,Stimuli\ping.png,midRight,lowB,downLeft,lowC,downRight,upLeft,upRight,1,rew_high,z,,,,,0,93,93,5,,,0.6,0.7,exp,z,1,0.713842700002715,-10.14,0,10.14,0,-7.16,-7.16,7.16,-7.16,-7.16,7.16,7.16,7.16,2,112,31,3399,193,194,11,RL,2,F,23,R,2025-05-13_09h54.34.207,RewSL_RL_EEG,
ping,high,midLeft,UP,red,l,lowA,Stimuli\red_bar1.png,Stimuli\red_bar1.png,Stimuli\ping.png,midRight,lowB,downLeft,lowC,downRight,upLeft,upRight,1,rew_high,z,,,,,0,94,94,24,,,0.5,0.7,exp,z,1,0.562825699991663,-10.14,0,10.14,0,-7.16,-7.16,7.16,-7.16,-7.16,7.16,7.16,7.16,2,112,31,3499,194,195,11,RL,2,F,23,R,2025-05-13_09h54.34.207,RewSL_RL_EEG,
ping,lowC,downRight,DOWN,green,l,lowA,Stimuli\green_bar1.png,Stimuli\green_bar1.png,Stimuli\ping.png,midRight,lowB,downLeft,high,midLeft,upLeft,upRight,1,rew_low,m,,,,,0,95,95,83,,,0.6,0.7,exp,m,1,0.9924303000007058,7.16,-7.16,10.14,0,-7.16,-7.16,-10.14,0,-7.16,7.16,7.16,7.16,2,242,30,3500,195,196,11,RL,2,F,23,R,2025-05-13_09h54.34.207,RewSL_RL_EEG,
ping,lowB,downLeft,DOWN,red,l,lowA,Stimuli\red_bar1.png,Stimuli\red_bar1.png,Stimuli\ping.png,midRight,high,midLeft,lowC,downRight,upLeft,upRight,1,rew_low,m,,,,,0,96,96,50,,,0.5,0.7,exp,m,1,0.5961536999966484,-7.16,-7.16,10.14,0,-10.14,0,7.16,-7.16,-7.16,7.16,7.16,7.16,2,232,30,3501,196,197,11,RL,2,F,23,R,2025-05-13_09h54.34.207,RewSL_RL_EEG,
ping,high,midLeft,DOWN,red,r,lowA,Stimuli\red_bar1.png,Stimuli\red_bar1.png,Stimuli\ping.png,midRight,lowB,downLeft,lowC,downRight,upLeft,upRight,1,rew_high,m,,,,,0,97,97,6,,,0.5,0.8,exp,z,0,0.9299469999969006,-10.14,0,10.14,0,-7.16,-7.16,7.16,-7.16,-7.16,7.16,7.16,7.16,2,212,31,3501,197,198,11,RL,2,F,23,R,2025-05-13_09h54.34.207,RewSL_RL_EEG,
ping,lowA,midRight,DOWN,green,r,high,Stimuli\green_bar1.png,Stimuli\green_bar1.png,Stimuli\ping.png,midLeft,lowB,downLeft,lowC,downRight,upLeft,upRight,1,rew_low,m,,,,,0,98,98,47,,,0.6,0.7,exp,z,0,0.8455125999898883,10.14,0,-10.14,0,-7.16,-7.16,7.16,-7.16,-7.16,7.16,7.16,7.16,2,222,30,3501,198,199,11,RL,2,F,23,R,2025-05-13_09h54.34.207,RewSL_RL_EEG,
ping,lowC,downRight,UP,red,l,lowA,Stimuli\red_bar1.png,Stimuli\red_bar1.png,Stimuli\ping.png,midRight,lowB,downLeft,high,midLeft,upLeft,upRight,1,rew_low,z,,,,,0,99,99,80,,,0.6,0.8,exp,z,1,0.9120352000027196,7.16,-7.16,10.14,0,-7.16,-7.16,-10.14,0,-7.16,7.16,7.16,7.16,2,142,30,3502,199,200,11,RL,2,F,23,R,2025-05-13_09h54.34.207,RewSL_RL_EEG,
ping,lowB,downRight,DOWN,red,r,lowA,Stimuli\red_bar1.png,Stimuli\red_bar1.png,Stimuli\ping.png,midLeft,high,midRight,lowC,downLeft,upLeft,upRight,2,rew_low,m,,,,,0,0,0,54,,,0.4,0.6,exp,z,0,0.6287141000066185,7.16,-7.16,-10.14,0,10.14,0,-7.16,-7.16,-7.16,7.16,7.16,7.16,4,244,30,3502,200,201,11,RL,2,F,23,R,2025-05-13_09h54.34.207,RewSL_RL_EEG,
ping,lowB,downRight,UP,green,l,lowA,Stimuli\green_bar1.png,Stimuli\green_bar1.png,Stimuli\ping.png,midLeft,high,midRight,lowC,downLeft,upLeft,upRight,2,rew_low,z,,,,,0,1,1,57,,,0.5,0.6,exp,m,0,0.6859354000043822,7.16,-7.16,-10.14,0,10.14,0,-7.16,-7.16,-7.16,7.16,7.16,7.16,4,144,30,3502,201,202,11,RL,2,F,23,R,2025-05-13_09h54.34.207,RewSL_RL_EEG,
ping,lowB,downRight,DOWN,red,r,lowA,Stimuli\red_bar1.png,Stimuli\red_bar1.png,Stimuli\ping.png,midLeft,high,midRight,lowC,downLeft,upLeft,upRight,2,rew_low,m,,,,,0,2,2,70,,,0.4,0.6,exp,m,1,0.9706724999996368,7.16,-7.16,-10.14,0,10.14,0,-7.16,-7.16,-7.16,7.16,7.16,7.16,4,244,30,3503,202,203,11,RL,2,F,23,R,2025-05-13_09h54.34.207,RewSL_RL_EEG,
ping,lowC,downLeft,DOWN,green,l,lowA,Stimuli\green_bar1.png,Stimuli\green_bar1.png,Stimuli\ping.png,midLeft,lowB,downRight,high,midRight,upLeft,upRight,2,rew_low,m,,,,,0,3,3,91,,,0.5,0.7,exp,m,1,0.5967250999965472,-7.16,-7.16,-10.14,0,7.16,-7.16,10.14,0,-7.16,7.16,7.16,7.16,4,234,30,3504,203,204,11,RL,2,F,23,R,2025-05-13_09h54.34.207,RewSL_RL_EEG,
ping,lowA,midLeft,UP,red,r,high,Stimuli\red_bar1.png,Stimuli\red_bar1.png,Stimuli\ping.png,midRight,lowB,downRight,lowC,downLeft,upLeft,upRight,2,rew_low,z,,,,,0,4,4,28,,,0.6,0.7,exp,z,1,0.6294102999963798,-10.14,0,10.14,0,7.16,-7.16,-7.16,-7.16,-7.16,7.16,7.16,7.16,4,114,30,3505,204,205,11,RL,2,F,23,R,2025-05-13_09h54.34.207,RewSL_RL_EEG,
ping,lowC,downLeft,UP,red,r,lowA,Stimuli\red_bar1.png,Stimuli\red_bar1.png,Stimuli\ping.png,midLeft,lowB,downRight,high,midRight,upLeft,upRight,2,rew_low,z,,,,,0,5,5,92,,,0.5,0.7,exp,m,0,0.8797877000033623,-7.16,-7.16,-10.14,0,7.16,-7.16,10.14,0,-7.16,7.16,7.16,7.16,4,134,30,3505,205,206,11,RL,2,F,23,R,2025-05-13_09h54.34.207,RewSL_RL_EEG,
ping,high,midRight,UP,red,l,lowA,Stimuli\red_bar1.png,Stimuli\red_bar1.png,Stimuli\ping.png,midLeft,lowB,downRight,lowC,downLeft,upLeft,upRight,2,rew_high,z,,,,,0,6,6,24,,,0.5,0.6,exp,m,0,0.6882675000088057,10.14,0,-10.14,0,7.16,-7.16,-7.16,-7.16,-7.16,7.16,7.16,7.16,4,124,31,3505,206,207,11,RL,2,F,23,R,2025-05-13_09h54.34.207,RewSL_RL_EEG,
ping,lowB,downRight,UP,red,l,lowA,Stimuli\red_bar1.png,Stimuli\red_bar1.png,Stimuli\ping.png,midLeft,high,midRight,lowC,downLeft,upLeft,upRight,2,rew_low,z,,,,,0,7,7,64,,,0.5,0.7,exp,z,1,0.9301247999974294,7.16,-7.16,-10.14,0,10.14,0,-7.16,-7.16,-7.16,7.16,7.16,7.16,4,144,30,3506,207,208,11,RL,2,F,23,R,2025-05-13_09h54.34.207,RewSL_RL_EEG,
ping,high,midRight,DOWN,green,l,lowA,Stimuli\green_bar1.png,Stimuli\green_bar1.png,Stimuli\ping.png,midLeft,lowB,downRight,lowC,downLeft,upLeft,upRight,2,rew_high,m,,,,,0,8,8,3,,,0.5,0.8,exp,m,1,0.7367655999987619,10.14,0,-10.14,0,7.16,-7.16,-7.16,-7.16,-7.16,7.16,7.16,7.16,4,224,31,3606,208,209,11,RL,2,F,23,R,2025-05-13_09h54.34.207,RewSL_RL_EEG,
ping,lowB,downRight,DOWN,red,l,lowA,Stimuli\red_bar1.png,Stimuli\red_bar1.png,Stimuli\ping.png,midLeft,high,midRight,lowC,downLeft,upLeft,upRight,2,rew_low,m,,,,,0,9,9,50,,,0.5,0.7,exp,m,1,0.8625891999981832,7.16,-7.16,-10.14,0,10.14,0,-7.16,-7.16,-7.16,7.16,7.16,7.16,4,244,30,3607,209,210,11,RL,2,F,23,R,2025-05-13_09h54.34.207,RewSL_RL_EEG,
ping,lowA,midLeft,UP,red,l,high,Stimuli\red_bar1.png,Stimuli\red_bar1.png,Stimuli\ping.png,midRight,lowB,downRight,lowC,downLeft,upLeft,upRight,2,rew_low,z,,,,,0,10,10,32,,,0.5,0.8,exp,z,1,0.5130580000113696,-10.14,0,10.14,0,7.16,-7.16,-7.16,-7.16,-7.16,7.16,7.16,7.16,4,114,30,3608,210,211,11,RL,2,F,23,R,2025-05-13_09h54.34.207,RewSL_RL_EEG,
ping,lowB,downRight,UP,green,l,lowA,Stimuli\green_bar1.png,Stimuli\green_bar1.png,Stimuli\ping.png,midLeft,high,midRight,lowC,downLeft,upLeft,upRight,2,rew_low,z,,,,,0,11,11,65,,,0.5,0.7,exp,m,0,0.737292299992987,7.16,-7.16,-10.14,0,10.14,0,-7.16,-7.16,-7.16,7.16,7.16,7.16,4,144,30,3608,211,212,11,RL,2,F,23,R,2025-05-13_09h54.34.207,RewSL_RL_EEG,
ping,lowA,midLeft,UP,green,l,high,Stimuli\green_bar1.png,Stimuli\green_bar1.png,Stimuli\ping.png,midRight,lowB,downRight,lowC,downLeft,upLeft,upRight,2,rew_low,z,,,,,0,12,12,49,,,0.5,0.8,exp,z,1,0.6217964000097709,-10.14,0,10.14,0,7.16,-7.16,-7.16,-7.16,-7.16,7.16,7.16,7.16,4,114,30,3609,212,213,11,RL,2,F,23,R,2025-05-13_09h54.34.207,RewSL_RL_EEG,
ping,lowA,midLeft,UP,red,r,high,Stimuli\red_bar1.png,Stimuli\red_bar1.png,Stimuli\ping.png,midRight,lowB,downRight,lowC,downLeft,upLeft,upRight,2,rew_low,z,,,,,0,13,13,36,,,0.6,0.7,exp,z,1,0.5371463000046788,-10.14,0,10.14,0,7.16,-7.16,-7.16,-7.16,-7.16,7.16,7.16,7.16,4,114,30,3610,213,214,11,RL,2,F,23,R,2025-05-13_09h54.34.207,RewSL_RL_EEG,
ping,lowA,midLeft,DOWN,red,l,high,Stimuli\red_bar1.png,Stimuli\red_bar1.png,Stimuli\ping.png,midRight,lowB,downRight,lowC,downLeft,upLeft,upRight,2,rew_low,m,,,,,0,14,14,42,,,0.5,0.7,exp,m,1,0.5471082000003662,-10.14,0,10.14,0,7.16,-7.16,-7.16,-7.16,-7.16,7.16,7.16,7.16,4,214,30,3611,214,215,11,RL,2,F,23,R,2025-05-13_09h54.34.207,RewSL_RL_EEG,
ping,lowB,downRight,UP,red,r,lowA,Stimuli\red_bar1.png,Stimuli\red_bar1.png,Stimuli\ping.png,midLeft,high,midRight,lowC,downLeft,upLeft,upRight,2,rew_low,z,,,,,0,15,15,68,,,0.5,0.7,exp,z,1,0.4639023000054294,7.16,-7.16,-10.14,0,10.14,0,-7.16,-7.16,-7.16,7.16,7.16,7.16,4,144,30,3612,215,216,11,RL,2,F,23,R,2025-05-13_09h54.34.207,RewSL_RL_EEG,
ping,lowC,downLeft,UP,green,r,lowA,Stimuli\green_bar1.png,Stimuli\green_bar1.png,Stimuli\ping.png,midLeft,lowB,downRight,high,midRight,upLeft,upRight,2,rew_low,z,,,,,0,16,16,93,,,0.5,0.7,exp,z,1,0.8490902000048663,-7.16,-7.16,-10.14,0,7.16,-7.16,10.14,0,-7.16,7.16,7.16,7.16,4,134,30,3613,216,217,11,RL,2,F,23,R,2025-05-13_09h54.34.207,RewSL_RL_EEG,
ping,high,midRight,DOWN,red,l,lowA,Stimuli\red_bar1.png,Stimuli\red_bar1.png,Stimuli\ping.png,midLeft,lowB,downRight,lowC,downLeft,upLeft,upRight,2,rew_high,m,,,,,0,17,17,2,,,0.6,0.8,exp,m,1,0.5865556000062497,10.14,0,-10.14,0,7.16,-7.16,-7.16,-7.16,-7.16,7.16,7.16,7.16,4,224,31,3713,217,218,11,RL,2,F,23,R,2025-05-13_09h54.34.207,RewSL_RL_EEG,
ping,lowA,midLeft,DOWN,green,r,high,Stimuli\green_bar1.png,Stimuli\green_bar1.png,Stimuli\ping.png,midRight,lowB,downRight,lowC,downLeft,upLeft,upRight,2,rew_low,m,,,,,0,18,18,31,,,0.6,0.8,exp,z,0,0.6875110999972094,-10.14,0,10.14,0,7.16,-7.16,-7.16,-7.16,-7.16,7.16,7.16,7.16,4,214,30,3713,218,219,11,RL,2,F,23,R,2025-05-13_09h54.34.207,RewSL_RL_EEG,
ping,lowC,downLeft,DOWN,green,l,lowA,Stimuli\green_bar1.png,Stimuli\green_bar1.png,Stimuli\ping.png,midLeft,lowB,downRight,high,midRight,upLeft,upRight,2,rew_low,m,,,,,0,19,19,83,,,0.4,0.6,exp,z,0,0.8126791999966372,-7.16,-7.16,-10.14,0,7.16,-7.16,10.14,0,-7.16,7.16,7.16,7.16,4,234,30,3713,219,220,11,RL,2,F,23,R,2025-05-13_09h54.34.207,RewSL_RL_EEG,
ping,high,midRight,UP,red,l,lowA,Stimuli\red_bar1.png,Stimuli\red_bar1.png,Stimuli\ping.png,midLeft,lowB,downRight,lowC,downLeft,upLeft,upRight,2,rew_high,z,,,,,0,20,20,8,,,0.5,0.7,exp,z,1,0.887669800009462,10.14,0,-10.14,0,7.16,-7.16,-7.16,-7.16,-7.16,7.16,7.16,7.16,4,124,31,3813,220,221,11,RL,2,F,23,R,2025-05-13_09h54.34.207,RewSL_RL_EEG,
ping,lowC,downLeft,UP,green,l,lowA,Stimuli\green_bar1.png,Stimuli\green_bar1.png,Stimuli\ping.png,midLeft,lowB,downRight,high,midRight,upLeft,upRight,2,rew_low,z,,,,,0,21,21,81,,,0.5,0.7,exp,m,0,0.7460460000002058,-7.16,-7.16,-10.14,0,7.16,-7.16,10.14,0,-7.16,7.16,7.16,7.16,4,134,30,3813,221,222,11,RL,2,F,23,R,2025-05-13_09h54.34.207,RewSL_RL_EEG,
ping,lowB,downRight,UP,green,r,lowA,Stimuli\green_bar1.png,Stimuli\green_bar1.png,Stimuli\ping.png,midLeft,high,midRight,lowC,downLeft,upLeft,upRight,2,rew_low,z,,,,,0,22,22,53,,,0.6,0.6,exp,z,1,0.7731543999980204,7.16,-7.16,-10.14,0,10.14,0,-7.16,-7.16,-7.16,7.16,7.16,7.16,4,144,30,3814,222,223,11,RL,2,F,23,R,2025-05-13_09h54.34.207,RewSL_RL_EEG,
ping,lowA,midLeft,DOWN,green,r,high,Stimuli\green_bar1.png,Stimuli\green_bar1.png,Stimuli\ping.png,midRight,lowB,downRight,lowC,downLeft,upLeft,upRight,2,rew_low,m,,,,,0,23,23,39,,,0.6,0.6,exp,z,0,0.94692830000713,-10.14,0,10.14,0,7.16,-7.16,-7.16,-7.16,-7.16,7.16,7.16,7.16,4,214,30,3814,223,224,11,RL,2,F,23,R,2025-05-13_09h54.34.207,RewSL_RL_EEG,
ping,lowB,downRight,UP,red,r,lowA,Stimuli\red_bar1.png,Stimuli\red_bar1.png,Stimuli\ping.png,midLeft,high,midRight,lowC,downLeft,upLeft,upRight,2,rew_low,z,,,,,0,24,24,60,,,0.6,0.8,exp,m,0,1.0126523999933852,7.16,-7.16,-10.14,0,10.14,0,-7.16,-7.16,-7.16,7.16,7.16,7.16,4,144,30,3814,224,225,11,RL,2,F,23,R,2025-05-13_09h54.34.207,RewSL_RL_EEG,
ping,high,midRight,DOWN,green,r,lowA,Stimuli\green_bar1.png,Stimuli\green_bar1.png,Stimuli\ping.png,midLeft,lowB,downRight,lowC,downLeft,upLeft,upRight,2,rew_high,m,,,,,0,25,25,7,,,0.6,0.6,exp,m,1,0.679125099995872,10.14,0,-10.14,0,7.16,-7.16,-7.16,-7.16,-7.16,7.16,7.16,7.16,4,224,31,3914,225,226,11,RL,2,F,23,R,2025-05-13_09h54.34.207,RewSL_RL_EEG,
ping,lowC,downLeft,DOWN,green,l,lowA,Stimuli\green_bar1.png,Stimuli\green_bar1.png,Stimuli\ping.png,midLeft,lowB,downRight,high,midRight,upLeft,upRight,2,rew_low,m,,,,,0,26,26,75,,,0.5,0.7,exp,m,1,0.7300125000037951,-7.16,-7.16,-10.14,0,7.16,-7.16,10.14,0,-7.16,7.16,7.16,7.16,4,234,30,3915,226,227,11,RL,2,F,23,R,2025-05-13_09h54.34.207,RewSL_RL_EEG,
ping,lowC,downLeft,UP,green,l,lowA,Stimuli\green_bar1.png,Stimuli\green_bar1.png,Stimuli\ping.png,midLeft,lowB,downRight,high,midRight,upLeft,upRight,2,rew_low,z,,,,,0,27,27,89,,,0.4,0.6,exp,m,0,0.6880558999982895,-7.16,-7.16,-10.14,0,7.16,-7.16,10.14,0,-7.16,7.16,7.16,7.16,4,134,30,3915,227,228,11,RL,2,F,23,R,2025-05-13_09h54.34.207,RewSL_RL_EEG,
ping,lowC,downLeft,DOWN,red,l,lowA,Stimuli\red_bar1.png,Stimuli\red_bar1.png,Stimuli\ping.png,midLeft,lowB,downRight,high,midRight,upLeft,upRight,2,rew_low,m,,,,,0,28,28,90,,,0.5,0.7,exp,m,1,0.7458483999944292,-7.16,-7.16,-10.14,0,7.16,-7.16,10.14,0,-7.16,7.16,7.16,7.16,4,234,30,3916,228,229,11,RL,2,F,23,R,2025-05-13_09h54.34.207,RewSL_RL_EEG,
ping,lowC,downLeft,UP,green,r,lowA,Stimuli\green_bar1.png,Stimuli\green_bar1.png,Stimuli\ping.png,midLeft,lowB,downRight,high,midRight,upLeft,upRight,2,rew_low,z,,,,,0,29,29,85,,,0.5,0.6,exp,z,1,0.6628695000108564,-7.16,-7.16,-10.14,0,7.16,-7.16,10.14,0,-7.16,7.16,7.16,7.16,4,134,30,3917,229,230,11,RL,2,F,23,R,2025-05-13_09h54.34.207,RewSL_RL_EEG,
ping,lowC,downLeft,UP,red,r,lowA,Stimuli\red_bar1.png,Stimuli\red_bar1.png,Stimuli\ping.png,midLeft,lowB,downRight,high,midRight,upLeft,upRight,2,rew_low,z,,,,,0,30,30,76,,,0.6,0.6,exp,z,1,0.8624141000036616,-7.16,-7.16,-10.14,0,7.16,-7.16,10.14,0,-7.16,7.16,7.16,7.16,4,134,30,3918,230,231,11,RL,2,F,23,R,2025-05-13_09h54.34.207,RewSL_RL_EEG,
ping,high,midRight,UP,red,l,lowA,Stimuli\red_bar1.png,Stimuli\red_bar1.png,Stimuli\ping.png,midLeft,lowB,downRight,lowC,downLeft,upLeft,upRight,2,rew_high,z,,,,,0,31,31,0,,,0.6,0.7,exp,z,1,0.938740500001586,10.14,0,-10.14,0,7.16,-7.16,-7.16,-7.16,-7.16,7.16,7.16,7.16,4,124,31,4018,231,232,11,RL,2,F,23,R,2025-05-13_09h54.34.207,RewSL_RL_EEG,
ping,lowC,downLeft,DOWN,green,r,lowA,Stimuli\green_bar1.png,Stimuli\green_bar1.png,Stimuli\ping.png,midLeft,lowB,downRight,high,midRight,upLeft,upRight,2,rew_low,m,,,,,0,32,32,99,,,0.4,0.8,exp,m,1,0.937493599994923,-7.16,-7.16,-10.14,0,7.16,-7.16,10.14,0,-7.16,7.16,7.16,7.16,4,234,30,4019,232,233,11,RL,2,F,23,R,2025-05-13_09h54.34.207,RewSL_RL_EEG,
ping,lowC,downLeft,DOWN,red,r,lowA,Stimuli\red_bar1.png,Stimuli\red_bar1.png,Stimuli\ping.png,midLeft,lowB,downRight,high,midRight,upLeft,upRight,2,rew_low,m,,,,,0,33,33,98,,,0.5,0.8,exp,m,1,0.6120567000034498,-7.16,-7.16,-10.14,0,7.16,-7.16,10.14,0,-7.16,7.16,7.16,7.16,4,234,30,4020,233,234,11,RL,2,F,23,R,2025-05-13_09h54.34.207,RewSL_RL_EEG,
ping,lowC,downLeft,DOWN,red,l,lowA,Stimuli\red_bar1.png,Stimuli\red_bar1.png,Stimuli\ping.png,midLeft,lowB,downRight,high,midRight,upLeft,upRight,2,rew_low,m,,,,,0,34,34,82,,,0.5,0.7,exp,m,1,0.5712561999971513,-7.16,-7.16,-10.14,0,7.16,-7.16,10.14,0,-7.16,7.16,7.16,7.16,4,234,30,4021,234,235,11,RL,2,F,23,R,2025-05-13_09h54.34.207,RewSL_RL_EEG,
ping,lowA,midLeft,DOWN,red,r,high,Stimuli\red_bar1.png,Stimuli\red_bar1.png,Stimuli\ping.png,midRight,lowB,downRight,lowC,downLeft,upLeft,upRight,2,rew_low,m,,,,,0,35,35,38,,,0.5,0.8,exp,m,1,0.5386733000050299,-10.14,0,10.14,0,7.16,-7.16,-7.16,-7.16,-7.16,7.16,7.16,7.16,4,214,30,4022,235,236,11,RL,2,F,23,R,2025-05-13_09h54.34.207,RewSL_RL_EEG,
ping,lowB,downRight,DOWN,green,r,lowA,Stimuli\green_bar1.png,Stimuli\green_bar1.png,Stimuli\ping.png,midLeft,high,midRight,lowC,downLeft,upLeft,upRight,2,rew_low,m,,,,,0,36,36,55,,,0.6,0.7,exp,z,0,0.7533593999978621,7.16,-7.16,-10.14,0,10.14,0,-7.16,-7.16,-7.16,7.16,7.16,7.16,4,244,30,4022,236,237,11,RL,2,F,23,R,2025-05-13_09h54.34.207,RewSL_RL_EEG,
ping,lowB,downRight,UP,green,r,lowA,Stimuli\green_bar1.png,Stimuli\green_bar1.png,Stimuli\ping.png,midLeft,high,midRight,lowC,downLeft,upLeft,upRight,2,rew_low,z,,,,,0,37,37,69,,,0.5,0.6,exp,z,1,0.7889785000006668,7.16,-7.16,-10.14,0,10.14,0,-7.16,-7.16,-7.16,7.16,7.16,7.16,4,144,30,4023,237,238,11,RL,2,F,23,R,2025-05-13_09h54.34.207,RewSL_RL_EEG,
ping,high,midRight,UP,red,r,lowA,Stimuli\red_bar1.png,Stimuli\red_bar1.png,Stimuli\ping.png,midLeft,lowB,downRight,lowC,downLeft,upLeft,upRight,2,rew_high,z,,,,,0,38,38,4,,,0.5,0.7,exp,z,1,0.5707963999884669,10.14,0,-10.14,0,7.16,-7.16,-7.16,-7.16,-7.16,7.16,7.16,7.16,4,124,31,4123,238,239,11,RL,2,F,23,R,2025-05-13_09h54.34.207,RewSL_RL_EEG,
ping,high,midRight,UP,green,r,lowA,Stimuli\green_bar1.png,Stimuli\green_bar1.png,Stimuli\ping.png,midLeft,lowB,downRight,lowC,downLeft,upLeft,upRight,2,rew_high,z,,,,,0,39,39,13,,,0.4,0.8,exp,m,0,0.8884618999873055,10.14,0,-10.14,0,7.16,-7.16,-7.16,-7.16,-7.16,7.16,7.16,7.16,4,124,31,4123,239,240,11,RL,2,F,23,R,2025-05-13_09h54.34.207,RewSL_RL_EEG,
ping,lowB,downRight,UP,red,l,lowA,Stimuli\red_bar1.png,Stimuli\red_bar1.png,Stimuli\ping.png,midLeft,high,midRight,lowC,downLeft,upLeft,upRight,2,rew_low,z,,,,,0,40,40,56,,,0.6,0.7,exp,z,1,0.570637099997839,7.16,-7.16,-10.14,0,10.14,0,-7.16,-7.16,-7.16,7.16,7.16,7.16,4,144,30,4124,240,241,11,RL,2,F,23,R,2025-05-13_09h54.34.207,RewSL_RL_EEG,
ping,lowA,midLeft,DOWN,red,r,high,Stimuli\red_bar1.png,Stimuli\red_bar1.png,Stimuli\ping.png,midRight,lowB,downRight,lowC,downLeft,upLeft,upRight,2,rew_low,m,,,,,0,41,41,30,,,0.4,0.6,exp,None,0,,-10.14,0,10.14,0,7.16,-7.16,-7.16,-7.16,-7.16,7.16,7.16,7.16,4,214,30,4124,241,242,11,RL,2,F,23,R,2025-05-13_09h54.34.207,RewSL_RL_EEG,
ping,high,midRight,DOWN,green,r,lowA,Stimuli\green_bar1.png,Stimuli\green_bar1.png,Stimuli\ping.png,midLeft,lowB,downRight,lowC,downLeft,upLeft,upRight,2,rew_high,m,,,,,0,42,42,23,,,0.5,0.7,exp,z,0,0.5786341000057291,10.14,0,-10.14,0,7.16,-7.16,-7.16,-7.16,-7.16,7.16,7.16,7.16,4,224,31,4124,242,243,11,RL,2,F,23,R,2025-05-13_09h54.34.207,RewSL_RL_EEG,
ping,lowC,downLeft,DOWN,red,r,lowA,Stimuli\red_bar1.png,Stimuli\red_bar1.png,Stimuli\ping.png,midLeft,lowB,downRight,high,midRight,upLeft,upRight,2,rew_low,m,,,,,0,43,43,86,,,0.5,0.6,exp,m,1,0.6711732000112534,-7.16,-7.16,-10.14,0,7.16,-7.16,10.14,0,-7.16,7.16,7.16,7.16,4,234,30,4125,243,244,11,RL,2,F,23,R,2025-05-13_09h54.34.207,RewSL_RL_EEG,
ping,lowA,midLeft,UP,green,l,high,Stimuli\green_bar1.png,Stimuli\green_bar1.png,Stimuli\ping.png,midRight,lowB,downRight,lowC,downLeft,upLeft,upRight,2,rew_low,z,,,,,0,44,44,33,,,0.5,0.6,exp,z,1,0.604926300002262,-10.14,0,10.14,0,7.16,-7.16,-7.16,-7.16,-7.16,7.16,7.16,7.16,4,114,30,4126,244,245,11,RL,2,F,23,R,2025-05-13_09h54.34.207,RewSL_RL_EEG,
ping,high,midRight,UP,green,r,lowA,Stimuli\green_bar1.png,Stimuli\green_bar1.png,Stimuli\ping.png,midLeft,lowB,downRight,lowC,downLeft,upLeft,upRight,2,rew_high,z,,,,,0,45,45,21,,,0.6,0.7,exp,z,1,0.8553335000033258,10.14,0,-10.14,0,7.16,-7.16,-7.16,-7.16,-7.16,7.16,7.16,7.16,4,124,31,4226,245,246,11,RL,2,F,23,R,2025-05-13_09h54.34.207,RewSL_RL_EEG,
ping,lowA,midLeft,UP,green,l,high,Stimuli\green_bar1.png,Stimuli\green_bar1.png,Stimuli\ping.png,midRight,lowB,downRight,lowC,downLeft,upLeft,upRight,2,rew_low,z,,,,,0,46,46,41,,,0.5,0.7,exp,z,1,0.730320100003155,-10.14,0,10.14,0,7.16,-7.16,-7.16,-7.16,-7.16,7.16,7.16,7.16,4,114,30,4227,246,247,11,RL,2,F,23,R,2025-05-13_09h54.34.207,RewSL_RL_EEG,
ping,high,midRight,DOWN,red,r,lowA,Stimuli\red_bar1.png,Stimuli\red_bar1.png,Stimuli\ping.png,midLeft,lowB,downRight,lowC,downLeft,upLeft,upRight,2,rew_high,m,,,,,0,47,47,6,,,0.5,0.6,exp,m,1,0.6288062000094214,10.14,0,-10.14,0,7.16,-7.16,-7.16,-7.16,-7.16,7.16,7.16,7.16,4,224,31,4327,247,248,11,RL,2,F,23,R,2025-05-13_09h54.34.207,RewSL_RL_EEG,
ping,lowC,downLeft,UP,red,r,lowA,Stimuli\red_bar1.png,Stimuli\red_bar1.png,Stimuli\ping.png,midLeft,lowB,downRight,high,midRight,upLeft,upRight,2,rew_low,z,,,,,0,48,48,84,,,0.5,0.7,exp,m,0,0.6211169000016525,-7.16,-7.16,-10.14,0,7.16,-7.16,10.14,0,-7.16,7.16,7.16,7.16,4,134,30,4327,248,249,11,RL,2,F,23,R,2025-05-13_09h54.34.207,RewSL_RL_EEG,
ping,lowA,midLeft,UP,green,r,high,Stimuli\green_bar1.png,Stimuli\green_bar1.png,Stimuli\ping.png,midRight,lowB,downRight,lowC,downLeft,upLeft,upRight,2,rew_low,z,,,,,0,49,49,45,,,0.5,0.8,exp,z,1,0.8292799999908311,-10.14,0,10.14,0,7.16,-7.16,-7.16,-7.16,-7.16,7.16,7.16,7.16,4,114,30,4328,249,250,11,RL,2,F,23,R,2025-05-13_09h54.34.207,RewSL_RL_EEG,
ping,lowC,downLeft,UP,red,l,lowA,Stimuli\red_bar1.png,Stimuli\red_bar1.png,Stimuli\ping.png,midLeft,lowB,downRight,high,midRight,upLeft,upRight,2,rew_low,z,,,,,0,50,50,88,,,0.4,0.6,exp,z,1,0.6547566999943228,-7.16,-7.16,-10.14,0,7.16,-7.16,10.14,0,-7.16,7.16,7.16,7.16,4,134,30,4329,250,251,11,RL,2,F,23,R,2025-05-13_09h54.34.207,RewSL_RL_EEG,
ping,lowA,midLeft,UP,red,r,high,Stimuli\red_bar1.png,Stimuli\red_bar1.png,Stimuli\ping.png,midRight,lowB,downRight,lowC,downLeft,upLeft,upRight,2,rew_low,z,,,,,0,51,51,44,,,0.5,0.6,exp,z,1,0.838684899994405,-10.14,0,10.14,0,7.16,-7.16,-7.16,-7.16,-7.16,7.16,7.16,7.16,4,114,30,4330,251,252,11,RL,2,F,23,R,2025-05-13_09h54.34.207,RewSL_RL_EEG,
ping,lowB,downRight,UP,green,l,lowA,Stimuli\green_bar1.png,Stimuli\green_bar1.png,Stimuli\ping.png,midLeft,high,midRight,lowC,downLeft,upLeft,upRight,2,rew_low,z,,,,,0,52,52,73,,,0.4,0.8,exp,z,1,1.0547032000031322,7.16,-7.16,-10.14,0,10.14,0,-7.16,-7.16,-7.16,7.16,7.16,7.16,4,144,30,4331,252,253,11,RL,2,F,23,R,2025-05-13_09h54.34.207,RewSL_RL_EEG,
ping,lowC,downLeft,UP,red,l,lowA,Stimuli\red_bar1.png,Stimuli\red_bar1.png,Stimuli\ping.png,midLeft,lowB,downRight,high,midRight,upLeft,upRight,2,rew_low,z,,,,,0,53,53,80,,,0.6,0.8,exp,z,1,0.8698631000006571,-7.16,-7.16,-10.14,0,7.16,-7.16,10.14,0,-7.16,7.16,7.16,7.16,4,134,30,4332,253,254,11,RL,2,F,23,R,2025-05-13_09h54.34.207,RewSL_RL_EEG,
ping,lowA,midLeft,DOWN,red,l,high,Stimuli\red_bar1.png,Stimuli\red_bar1.png,Stimuli\ping.png,midRight,lowB,downRight,lowC,downLeft,upLeft,upRight,2,rew_low,m,,,,,0,54,54,26,,,0.4,0.7,exp,m,1,0.9209278999915114,-10.14,0,10.14,0,7.16,-7.16,-7.16,-7.16,-7.16,7.16,7.16,7.16,4,214,30,4333,254,255,11,RL,2,F,23,R,2025-05-13_09h54.34.207,RewSL_RL_EEG,
ping,high,midRight,DOWN,red,r,lowA,Stimuli\red_bar1.png,Stimuli\red_bar1.png,Stimuli\ping.png,midLeft,lowB,downRight,lowC,downLeft,upLeft,upRight,2,rew_high,m,,,,,0,55,55,14,,,0.4,0.7,exp,m,1,0.5874530000000959,10.14,0,-10.14,0,7.16,-7.16,-7.16,-7.16,-7.16,7.16,7.16,7.16,4,224,31,4433,255,256,11,RL,2,F,23,R,2025-05-13_09h54.34.207,RewSL_RL_EEG,
ping,lowC,downLeft,DOWN,red,r,lowA,Stimuli\red_bar1.png,Stimuli\red_bar1.png,Stimuli\ping.png,midLeft,lowB,downRight,high,midRight,upLeft,upRight,2,rew_low,m,,,,,0,56,56,78,,,0.6,0.7,exp,m,1,0.6223946999962209,-7.16,-7.16,-10.14,0,7.16,-7.16,10.14,0,-7.16,7.16,7.16,7.16,4,234,30,4434,256,257,11,RL,2,F,23,R,2025-05-13_09h54.34.207,RewSL_RL_EEG,
ping,lowB,downRight,UP,green,r,lowA,Stimuli\green_bar1.png,Stimuli\green_bar1.png,Stimuli\ping.png,midLeft,high,midRight,lowC,downLeft,upLeft,upRight,2,rew_low,z,,,,,0,57,57,61,,,0.5,0.7,exp,m,0,0.7362880000000587,7.16,-7.16,-10.14,0,10.14,0,-7.16,-7.16,-7.16,7.16,7.16,7.16,4,144,30,4434,257,258,11,RL,2,F,23,R,2025-05-13_09h54.34.207,RewSL_RL_EEG,
ping,high,midRight,DOWN,red,l,lowA,Stimuli\red_bar1.png,Stimuli\red_bar1.png,Stimuli\ping.png,midLeft,lowB,downRight,lowC,downLeft,upLeft,upRight,2,rew_high,m,,,,,0,58,58,18,,,0.5,0.7,exp,m,1,0.8376285999984248,10.14,0,-10.14,0,7.16,-7.16,-7.16,-7.16,-7.16,7.16,7.16,7.16,4,224,31,4534,258,259,11,RL,2,F,23,R,2025-05-13_09h54.34.207,RewSL_RL_EEG,
ping,lowB,downRight,DOWN,green,r,lowA,Stimuli\green_bar1.png,Stimuli\green_bar1.png,Stimuli\ping.png,midLeft,high,midRight,lowC,downLeft,upLeft,upRight,2,rew_low,m,,,,,0,59,59,71,,,0.5,0.7,exp,m,1,0.7787915999942925,7.16,-7.16,-10.14,0,10.14,0,-7.16,-7.16,-7.16,7.16,7.16,7.16,4,244,30,4535,259,260,11,RL,2,F,23,R,2025-05-13_09h54.34.207,RewSL_RL_EEG,
ping,lowA,midLeft,DOWN,green,l,high,Stimuli\green_bar1.png,Stimuli\green_bar1.png,Stimuli\ping.png,midRight,lowB,downRight,lowC,downLeft,upLeft,upRight,2,rew_low,m,,,,,0,60,60,43,,,0.5,0.8,exp,z,0,0.5773723000020254,-10.14,0,10.14,0,7.16,-7.16,-7.16,-7.16,-7.16,7.16,7.16,7.16,4,214,30,4535,260,261,11,RL,2,F,23,R,2025-05-13_09h54.34.207,RewSL_RL_EEG,
ping,lowB,downRight,UP,red,r,lowA,Stimuli\red_bar1.png,Stimuli\red_bar1.png,Stimuli\ping.png,midLeft,high,midRight,lowC,downLeft,upLeft,upRight,2,rew_low,z,,,,,0,61,61,52,,,0.6,0.7,exp,z,1,0.8547905000013998,7.16,-7.16,-10.14,0,10.14,0,-7.16,-7.16,-7.16,7.16,7.16,7.16,4,144,30,4536,261,262,11,RL,2,F,23,R,2025-05-13_09h54.34.207,RewSL_RL_EEG,
ping,lowC,downLeft,DOWN,red,r,lowA,Stimuli\red_bar1.png,Stimuli\red_bar1.png,Stimuli\ping.png,midLeft,lowB,downRight,high,midRight,upLeft,upRight,2,rew_low,m,,,,,0,62,62,94,,,0.6,0.8,exp,m,1,0.6720735999988392,-7.16,-7.16,-10.14,0,7.16,-7.16,10.14,0,-7.16,7.16,7.16,7.16,4,234,30,4537,262,263,11,RL,2,F,23,R,2025-05-13_09h54.34.207,RewSL_RL_EEG,
ping,high,midRight,UP,green,l,lowA,Stimuli\green_bar1.png,Stimuli\green_bar1.png,Stimuli\ping.png,midLeft,lowB,downRight,lowC,downLeft,upLeft,upRight,2,rew_high,z,,,,,0,63,63,1,,,0.4,0.6,exp,m,0,0.6289586999919266,10.14,0,-10.14,0,7.16,-7.16,-7.16,-7.16,-7.16,7.16,7.16,7.16,4,124,31,4537,263,264,11,RL,2,F,23,R,2025-05-13_09h54.34.207,RewSL_RL_EEG,
ping,lowA,midLeft,UP,green,r,high,Stimuli\green_bar1.png,Stimuli\green_bar1.png,Stimuli\ping.png,midRight,lowB,downRight,lowC,downLeft,upLeft,upRight,2,rew_low,z,,,,,0,64,64,37,,,0.5,0.7,exp,z,1,0.621441400013282,-10.14,0,10.14,0,7.16,-7.16,-7.16,-7.16,-7.16,7.16,7.16,7.16,4,114,30,4538,264,265,11,RL,2,F,23,R,2025-05-13_09h54.34.207,RewSL_RL_EEG,
ping,lowB,downRight,DOWN,green,r,lowA,Stimuli\green_bar1.png,Stimuli\green_bar1.png,Stimuli\ping.png,midLeft,high,midRight,lowC,downLeft,upLeft,upRight,2,rew_low,m,,,,,0,65,65,63,,,0.5,0.7,exp,m,1,0.8061890999961179,7.16,-7.16,-10.14,0,10.14,0,-7.16,-7.16,-7.16,7.16,7.16,7.16,4,244,30,4539,265,266,11,RL,2,F,23,R,2025-05-13_09h54.34.207,RewSL_RL_EEG,
ping,high,midRight,DOWN,green,r,lowA,Stimuli\green_bar1.png,Stimuli\green_bar1.png,Stimuli\ping.png,midLeft,lowB,downRight,lowC,downLeft,upLeft,upRight,2,rew_high,m,,,,,0,66,66,15,,,0.5,0.7,exp,z,0,0.7967026999976952,10.14,0,-10.14,0,7.16,-7.16,-7.16,-7.16,-7.16,7.16,7.16,7.16,4,224,31,4539,266,267,11,RL,2,F,23,R,2025-05-13_09h54.34.207,RewSL_RL_EEG,
ping,high,midRight,DOWN,green,l,lowA,Stimuli\green_bar1.png,Stimuli\green_bar1.png,Stimuli\ping.png,midLeft,lowB,downRight,lowC,downLeft,upLeft,upRight,2,rew_high,m,,,,,0,67,67,11,,,0.4,0.7,exp,m,1,0.6715670000121463,10.14,0,-10.14,0,7.16,-7.16,-7.16,-7.16,-7.16,7.16,7.16,7.16,4,224,31,4639,267,268,11,RL,2,F,23,R,2025-05-13_09h54.34.207,RewSL_RL_EEG,
ping,lowB,downRight,DOWN,red,l,lowA,Stimuli\red_bar1.png,Stimuli\red_bar1.png,Stimuli\ping.png,midLeft,high,midRight,lowC,downLeft,upLeft,upRight,2,rew_low,m,,,,,0,68,68,66,,,0.6,0.7,exp,m,1,0.6712284000095678,7.16,-7.16,-10.14,0,10.14,0,-7.16,-7.16,-7.16,7.16,7.16,7.16,4,244,30,4640,268,269,11,RL,2,F,23,R,2025-05-13_09h54.34.207,RewSL_RL_EEG,
ping,lowC,downLeft,UP,green,r,lowA,Stimuli\green_bar1.png,Stimuli\green_bar1.png,Stimuli\ping.png,midLeft,lowB,downRight,high,midRight,upLeft,upRight,2,rew_low,z,,,,,0,69,69,77,,,0.5,0.6,exp,z,1,0.5876986999937799,-7.16,-7.16,-10.14,0,7.16,-7.16,10.14,0,-7.16,7.16,7.16,7.16,4,134,30,4641,269,270,11,RL,2,F,23,R,2025-05-13_09h54.34.207,RewSL_RL_EEG,
