trial_type,t_frequency,targetPos,Gap,arrayColor,targetOri,f1_frequency,TargetFile,stimuliFile,pingFile,f1_pos,f2_frequency,f2_pos,f3_frequency,f3_pos,f4_pos,f5_pos,Rlblock,Reward,corrAns,trials_p.thisRepN,trials_p.thisTrialN,trials_p.thisN,trials_p.thisIndex,trials_e.thisRepN,trials_e.thisTrialN,trials_e.thisN,trials_e.thisIndex,thisRow.t,notes,FIX,PINGdur,epoch,key_resp.keys,key_resp.corr,targetX,targetY,filler1X,filler1Y,filler2X,filler2Y,filler3X,filler3Y,filler4X,filler4Y,filler5X,filler5Y,pingID,ID,rewID,reward_sum,key_resp.rt,completed_trials,trial_count,participant,learning,session_nr,gender,age,handedness,date,expName,
ping,lowB,downLeft,UP,green,r,lowA,Stimuli\green_bar1.png,Stimuli\green_bar1.png,Stimuli\ping.png,midRight,high,midLeft,lowC,downRight,upLeft,upRight,1,rew_low,z,0,0,0,9,,,,,,,0.4,0.6,practice,None,0,-7.16,-7.16,10.14,0,-10.14,0,7.16,-7.16,-7.16,7.16,7.16,7.16,2,132,30,0,,,,2,RL,1,F,19,R,2025-06-17_13h07.58.739,RewSL_RL_EEG,
ping,high,midLeft,UP,green,l,lowA,Stimuli\green_bar1.png,Stimuli\green_bar1.png,Stimuli\ping.png,midRight,lowB,downLeft,lowC,downRight,upLeft,upRight,1,rew_high,z,0,1,1,1,,,,,,,0.6,0.7,practice,z,1,-10.14,0,10.14,0,-7.16,-7.16,7.16,-7.16,-7.16,7.16,7.16,7.16,2,112,31,100,0.8998667999985628,,,2,RL,1,F,19,R,2025-06-17_13h07.58.739,RewSL_RL_EEG,
ping,high,midLeft,DOWN,red,l,lowA,Stimuli\red_bar1.png,Stimuli\red_bar1.png,Stimuli\ping.png,midRight,lowB,downLeft,lowC,downRight,upLeft,upRight,1,rew_high,m,0,2,2,2,,,,,,,0.5,0.7,practice,m,1,-10.14,0,10.14,0,-7.16,-7.16,7.16,-7.16,-7.16,7.16,7.16,7.16,2,212,31,200,0.7156384999980219,,,2,RL,1,F,19,R,2025-06-17_13h07.58.739,RewSL_RL_EEG,
ping,lowC,downRight,UP,red,l,lowA,Stimuli\red_bar1.png,Stimuli\red_bar1.png,Stimuli\ping.png,midRight,lowB,downLeft,high,midLeft,upLeft,upRight,1,rew_low,z,0,3,3,14,,,,,,,0.5,0.6,practice,m,0,7.16,-7.16,10.14,0,-7.16,-7.16,-10.14,0,-7.16,7.16,7.16,7.16,2,142,30,200,0.714233200007584,,,2,RL,1,F,19,R,2025-06-17_13h07.58.739,RewSL_RL_EEG,
ping,lowB,downLeft,UP,red,r,lowA,Stimuli\red_bar1.png,Stimuli\red_bar1.png,Stimuli\ping.png,midRight,high,midLeft,lowC,downRight,upLeft,upRight,1,rew_low,z,0,4,4,8,,,,,,,0.6,0.7,practice,m,0,-7.16,-7.16,10.14,0,-10.14,0,7.16,-7.16,-7.16,7.16,7.16,7.16,2,132,30,200,0.671157700009644,,,2,RL,1,F,19,R,2025-06-17_13h07.58.739,RewSL_RL_EEG,
ping,lowA,midRight,DOWN,green,l,high,Stimuli\green_bar1.png,Stimuli\green_bar1.png,Stimuli\ping.png,midLeft,lowB,downLeft,lowC,downRight,upLeft,upRight,1,rew_low,m,0,5,5,5,,,,,,,0.6,0.7,practice,z,0,10.14,0,-10.14,0,-7.16,-7.16,7.16,-7.16,-7.16,7.16,7.16,7.16,2,222,30,200,0.9431742000160739,,,2,RL,1,F,19,R,2025-06-17_13h07.58.739,RewSL_RL_EEG,
ping,lowC,downRight,DOWN,green,r,lowA,Stimuli\green_bar1.png,Stimuli\green_bar1.png,Stimuli\ping.png,midRight,lowB,downLeft,high,midLeft,upLeft,upRight,1,rew_low,m,0,6,6,13,,,,,,,0.5,0.7,practice,m,1,7.16,-7.16,10.14,0,-7.16,-7.16,-10.14,0,-7.16,7.16,7.16,7.16,2,242,30,201,0.9749985000235029,,,2,RL,1,F,19,R,2025-06-17_13h07.58.739,RewSL_RL_EEG,
ping,lowC,downRight,DOWN,red,r,lowA,Stimuli\red_bar1.png,Stimuli\red_bar1.png,Stimuli\ping.png,midRight,lowB,downLeft,high,midLeft,upLeft,upRight,1,rew_low,m,0,7,7,12,,,,,,,0.5,0.8,practice,m,1,7.16,-7.16,10.14,0,-7.16,-7.16,-10.14,0,-7.16,7.16,7.16,7.16,2,242,30,202,0.8223342000273988,,,2,RL,1,F,19,R,2025-06-17_13h07.58.739,RewSL_RL_EEG,
ping,lowA,midRight,DOWN,red,l,high,Stimuli\red_bar1.png,Stimuli\red_bar1.png,Stimuli\ping.png,midLeft,lowB,downLeft,lowC,downRight,upLeft,upRight,1,rew_low,m,0,8,8,4,,,,,,,0.6,0.6,practice,None,0,10.14,0,-10.14,0,-7.16,-7.16,7.16,-7.16,-7.16,7.16,7.16,7.16,2,222,30,202,,,,2,RL,1,F,19,R,2025-06-17_13h07.58.739,RewSL_RL_EEG,
ping,lowB,downLeft,DOWN,red,r,lowA,Stimuli\red_bar1.png,Stimuli\red_bar1.png,Stimuli\ping.png,midRight,high,midLeft,lowC,downRight,upLeft,upRight,1,rew_low,m,0,9,9,10,,,,,,,0.6,0.7,practice,None,0,-7.16,-7.16,10.14,0,-10.14,0,7.16,-7.16,-7.16,7.16,7.16,7.16,2,232,30,202,,,,2,RL,1,F,19,R,2025-06-17_13h07.58.739,RewSL_RL_EEG,
ping,high,midLeft,UP,red,l,lowA,Stimuli\red_bar1.png,Stimuli\red_bar1.png,Stimuli\ping.png,midRight,lowB,downLeft,lowC,downRight,upLeft,upRight,1,rew_high,z,0,10,10,0,,,,,,,0.4,0.7,practice,z,1,-10.14,0,10.14,0,-7.16,-7.16,7.16,-7.16,-7.16,7.16,7.16,7.16,2,112,31,302,0.9766796000185423,,,2,RL,1,F,19,R,2025-06-17_13h07.58.739,RewSL_RL_EEG,
ping,lowA,midRight,UP,red,r,high,Stimuli\red_bar1.png,Stimuli\red_bar1.png,Stimuli\ping.png,midLeft,lowB,downLeft,lowC,downRight,upLeft,upRight,1,rew_low,z,0,11,11,6,,,,,,,0.5,0.7,practice,None,0,10.14,0,-10.14,0,-7.16,-7.16,7.16,-7.16,-7.16,7.16,7.16,7.16,2,122,30,302,,,,2,RL,1,F,19,R,2025-06-17_13h07.58.739,RewSL_RL_EEG,
ping,high,midLeft,DOWN,green,l,lowA,Stimuli\green_bar1.png,Stimuli\green_bar1.png,Stimuli\ping.png,midRight,lowB,downLeft,lowC,downRight,upLeft,upRight,1,rew_high,m,0,12,12,3,,,,,,,0.4,0.7,practice,m,1,-10.14,0,10.14,0,-7.16,-7.16,7.16,-7.16,-7.16,7.16,7.16,7.16,2,212,31,402,0.6725385000463575,,,2,RL,1,F,19,R,2025-06-17_13h07.58.739,RewSL_RL_EEG,
ping,lowA,midRight,UP,green,r,high,Stimuli\green_bar1.png,Stimuli\green_bar1.png,Stimuli\ping.png,midLeft,lowB,downLeft,lowC,downRight,upLeft,upRight,1,rew_low,z,0,13,13,7,,,,,,,0.4,0.8,practice,None,0,10.14,0,-10.14,0,-7.16,-7.16,7.16,-7.16,-7.16,7.16,7.16,7.16,2,122,30,402,,,,2,RL,1,F,19,R,2025-06-17_13h07.58.739,RewSL_RL_EEG,
ping,lowB,downLeft,DOWN,green,r,lowA,Stimuli\green_bar1.png,Stimuli\green_bar1.png,Stimuli\ping.png,midRight,high,midLeft,lowC,downRight,upLeft,upRight,1,rew_low,m,0,14,14,11,,,,,,,0.4,0.6,practice,None,0,-7.16,-7.16,10.14,0,-10.14,0,7.16,-7.16,-7.16,7.16,7.16,7.16,2,232,30,402,,,,2,RL,1,F,19,R,2025-06-17_13h07.58.739,RewSL_RL_EEG,
ping,lowC,downRight,UP,green,l,lowA,Stimuli\green_bar1.png,Stimuli\green_bar1.png,Stimuli\ping.png,midRight,lowB,downLeft,high,midLeft,upLeft,upRight,1,rew_low,z,0,15,15,15,,,,,,,0.6,0.7,practice,None,0,7.16,-7.16,10.14,0,-7.16,-7.16,-10.14,0,-7.16,7.16,7.16,7.16,2,142,30,402,,,,2,RL,1,F,19,R,2025-06-17_13h07.58.739,RewSL_RL_EEG,
ping,lowB,midLeft,UP,green,l,lowA,Stimuli\green_bar1.png,Stimuli\green_bar1.png,Stimuli\ping.png,downRight,high,downLeft,lowC,midRight,upLeft,upRight,3,rew_low,z,,,,,0,0,0,65,,,0.5,0.7,exp,z,1,-10.14,0,7.16,-7.16,-7.16,-7.16,10.14,0,-7.16,7.16,7.16,7.16,6,116,30,1,0.6515469999867491,0,1,2,RL,1,F,19,R,2025-06-17_13h07.58.739,RewSL_RL_EEG,
ping,lowA,downRight,DOWN,green,r,high,Stimuli\green_bar1.png,Stimuli\green_bar1.png,Stimuli\ping.png,downLeft,lowB,midLeft,lowC,midRight,upLeft,upRight,3,rew_low,m,,,,,0,1,1,31,,,0.5,0.8,exp,m,1,7.16,-7.16,-7.16,-7.16,-10.14,0,10.14,0,-7.16,7.16,7.16,7.16,6,246,30,2,1.051241300010588,1,2,2,RL,1,F,19,R,2025-06-17_13h07.58.739,RewSL_RL_EEG,
ping,lowC,midRight,DOWN,green,r,lowA,Stimuli\green_bar1.png,Stimuli\green_bar1.png,Stimuli\ping.png,downRight,lowB,midLeft,high,downLeft,upLeft,upRight,3,rew_low,m,,,,,0,2,2,87,,,0.5,0.6,exp,m,1,10.14,0,7.16,-7.16,-10.14,0,-7.16,-7.16,-7.16,7.16,7.16,7.16,6,226,30,3,0.9064436000189744,2,3,2,RL,1,F,19,R,2025-06-17_13h07.58.739,RewSL_RL_EEG,
ping,high,downLeft,DOWN,red,l,lowA,Stimuli\red_bar1.png,Stimuli\red_bar1.png,Stimuli\ping.png,downRight,lowB,midLeft,lowC,midRight,upLeft,upRight,3,rew_high,m,,,,,0,3,3,2,,,0.5,0.7,exp,None,0,-7.16,-7.16,7.16,-7.16,-10.14,0,10.14,0,-7.16,7.16,7.16,7.16,6,236,31,3,,3,4,2,RL,1,F,19,R,2025-06-17_13h07.58.739,RewSL_RL_EEG,
ping,lowB,midLeft,DOWN,red,l,lowA,Stimuli\red_bar1.png,Stimuli\red_bar1.png,Stimuli\ping.png,downRight,high,downLeft,lowC,midRight,upLeft,upRight,3,rew_low,m,,,,,0,4,4,50,,,0.6,0.7,exp,z,0,-10.14,0,7.16,-7.16,-7.16,-7.16,10.14,0,-7.16,7.16,7.16,7.16,6,216,30,3,1.0765146000194363,4,5,2,RL,1,F,19,R,2025-06-17_13h07.58.739,RewSL_RL_EEG,
ping,lowB,midLeft,UP,red,r,lowA,Stimuli\red_bar1.png,Stimuli\red_bar1.png,Stimuli\ping.png,downRight,high,downLeft,lowC,midRight,upLeft,upRight,3,rew_low,z,,,,,0,5,5,52,,,0.6,0.8,exp,z,1,-10.14,0,7.16,-7.16,-7.16,-7.16,10.14,0,-7.16,7.16,7.16,7.16,6,116,30,4,1.0763384000165388,5,6,2,RL,1,F,19,R,2025-06-17_13h07.58.739,RewSL_RL_EEG,
ping,lowC,midRight,UP,green,r,lowA,Stimuli\green_bar1.png,Stimuli\green_bar1.png,Stimuli\ping.png,downRight,lowB,midLeft,high,downLeft,upLeft,upRight,3,rew_low,z,,,,,0,6,6,93,,,0.5,0.6,exp,m,0,10.14,0,7.16,-7.16,-10.14,0,-7.16,-7.16,-7.16,7.16,7.16,7.16,6,126,30,4,1.1397605999954976,6,7,2,RL,1,F,19,R,2025-06-17_13h07.58.739,RewSL_RL_EEG,
ping,high,downLeft,DOWN,red,r,lowA,Stimuli\red_bar1.png,Stimuli\red_bar1.png,Stimuli\ping.png,downRight,lowB,midLeft,lowC,midRight,upLeft,upRight,3,rew_high,m,,,,,0,7,7,14,,,0.5,0.6,exp,m,1,-7.16,-7.16,7.16,-7.16,-10.14,0,10.14,0,-7.16,7.16,7.16,7.16,6,236,31,104,1.2650571999838576,7,8,2,RL,1,F,19,R,2025-06-17_13h07.58.739,RewSL_RL_EEG,
ping,high,downLeft,DOWN,red,r,lowA,Stimuli\red_bar1.png,Stimuli\red_bar1.png,Stimuli\ping.png,downRight,lowB,midLeft,lowC,midRight,upLeft,upRight,3,rew_high,m,,,,,0,8,8,6,,,0.4,0.6,exp,m,1,-7.16,-7.16,7.16,-7.16,-10.14,0,10.14,0,-7.16,7.16,7.16,7.16,6,236,31,204,1.0505012999637984,8,9,2,RL,1,F,19,R,2025-06-17_13h07.58.739,RewSL_RL_EEG,
ping,lowC,midRight,UP,green,r,lowA,Stimuli\green_bar1.png,Stimuli\green_bar1.png,Stimuli\ping.png,downRight,lowB,midLeft,high,downLeft,upLeft,upRight,3,rew_low,z,,,,,0,9,9,77,,,0.5,0.6,exp,None,0,10.14,0,7.16,-7.16,-10.14,0,-7.16,-7.16,-7.16,7.16,7.16,7.16,6,126,30,204,,9,10,2,RL,1,F,19,R,2025-06-17_13h07.58.739,RewSL_RL_EEG,
ping,high,downLeft,DOWN,green,l,lowA,Stimuli\green_bar1.png,Stimuli\green_bar1.png,Stimuli\ping.png,downRight,lowB,midLeft,lowC,midRight,upLeft,upRight,3,rew_high,m,,,,,0,10,10,11,,,0.5,0.7,exp,m,1,-7.16,-7.16,7.16,-7.16,-10.14,0,10.14,0,-7.16,7.16,7.16,7.16,6,236,31,304,0.8721716000000015,10,11,2,RL,1,F,19,R,2025-06-17_13h07.58.739,RewSL_RL_EEG,
ping,lowB,midLeft,UP,green,r,lowA,Stimuli\green_bar1.png,Stimuli\green_bar1.png,Stimuli\ping.png,downRight,high,downLeft,lowC,midRight,upLeft,upRight,3,rew_low,z,,,,,0,11,11,69,,,0.4,0.7,exp,None,0,-10.14,0,7.16,-7.16,-7.16,-7.16,10.14,0,-7.16,7.16,7.16,7.16,6,116,30,304,,11,12,2,RL,1,F,19,R,2025-06-17_13h07.58.739,RewSL_RL_EEG,
ping,high,downLeft,UP,red,l,lowA,Stimuli\red_bar1.png,Stimuli\red_bar1.png,Stimuli\ping.png,downRight,lowB,midLeft,lowC,midRight,upLeft,upRight,3,rew_high,z,,,,,0,12,12,8,,,0.5,0.7,exp,z,1,-7.16,-7.16,7.16,-7.16,-10.14,0,10.14,0,-7.16,7.16,7.16,7.16,6,136,31,404,1.0130493000033312,12,13,2,RL,1,F,19,R,2025-06-17_13h07.58.739,RewSL_RL_EEG,
ping,high,downLeft,DOWN,green,l,lowA,Stimuli\green_bar1.png,Stimuli\green_bar1.png,Stimuli\ping.png,downRight,lowB,midLeft,lowC,midRight,upLeft,upRight,3,rew_high,m,,,,,0,13,13,3,,,0.5,0.7,exp,m,1,-7.16,-7.16,7.16,-7.16,-10.14,0,10.14,0,-7.16,7.16,7.16,7.16,6,236,31,504,1.0428030000184663,13,14,2,RL,1,F,19,R,2025-06-17_13h07.58.739,RewSL_RL_EEG,
ping,high,downLeft,UP,green,l,lowA,Stimuli\green_bar1.png,Stimuli\green_bar1.png,Stimuli\ping.png,downRight,lowB,midLeft,lowC,midRight,upLeft,upRight,3,rew_high,z,,,,,0,14,14,1,,,0.4,0.6,exp,z,1,-7.16,-7.16,7.16,-7.16,-10.14,0,10.14,0,-7.16,7.16,7.16,7.16,6,136,31,604,0.9867062999983318,14,15,2,RL,1,F,19,R,2025-06-17_13h07.58.739,RewSL_RL_EEG,
ping,high,downLeft,DOWN,red,r,lowA,Stimuli\red_bar1.png,Stimuli\red_bar1.png,Stimuli\ping.png,downRight,lowB,midLeft,lowC,midRight,upLeft,upRight,3,rew_high,m,,,,,0,15,15,22,,,0.4,0.7,exp,m,1,-7.16,-7.16,7.16,-7.16,-10.14,0,10.14,0,-7.16,7.16,7.16,7.16,6,236,31,704,0.9640669000218622,15,16,2,RL,1,F,19,R,2025-06-17_13h07.58.739,RewSL_RL_EEG,
ping,lowB,midLeft,UP,red,l,lowA,Stimuli\red_bar1.png,Stimuli\red_bar1.png,Stimuli\ping.png,downRight,high,downLeft,lowC,midRight,upLeft,upRight,3,rew_low,z,,,,,0,16,16,72,,,0.5,0.8,exp,z,1,-10.14,0,7.16,-7.16,-7.16,-7.16,10.14,0,-7.16,7.16,7.16,7.16,6,116,30,705,1.1141182000283152,16,17,2,RL,1,F,19,R,2025-06-17_13h07.58.739,RewSL_RL_EEG,
ping,lowA,downRight,DOWN,green,l,high,Stimuli\green_bar1.png,Stimuli\green_bar1.png,Stimuli\ping.png,downLeft,lowB,midLeft,lowC,midRight,upLeft,upRight,3,rew_low,m,,,,,0,17,17,35,,,0.5,0.8,exp,m,1,7.16,-7.16,-7.16,-7.16,-10.14,0,10.14,0,-7.16,7.16,7.16,7.16,6,246,30,706,0.8586735000135377,17,18,2,RL,1,F,19,R,2025-06-17_13h07.58.739,RewSL_RL_EEG,
ping,lowB,midLeft,UP,red,l,lowA,Stimuli\red_bar1.png,Stimuli\red_bar1.png,Stimuli\ping.png,downRight,high,downLeft,lowC,midRight,upLeft,upRight,3,rew_low,z,,,,,0,18,18,56,,,0.6,0.7,exp,z,1,-10.14,0,7.16,-7.16,-7.16,-7.16,10.14,0,-7.16,7.16,7.16,7.16,6,116,30,707,0.9554425999522209,18,19,2,RL,1,F,19,R,2025-06-17_13h07.58.739,RewSL_RL_EEG,
ping,lowA,downRight,UP,green,l,high,Stimuli\green_bar1.png,Stimuli\green_bar1.png,Stimuli\ping.png,downLeft,lowB,midLeft,lowC,midRight,upLeft,upRight,3,rew_low,z,,,,,0,19,19,25,,,0.6,0.7,exp,None,0,7.16,-7.16,-7.16,-7.16,-10.14,0,10.14,0,-7.16,7.16,7.16,7.16,6,146,30,707,,19,20,2,RL,1,F,19,R,2025-06-17_13h07.58.739,RewSL_RL_EEG,
ping,lowB,midLeft,DOWN,green,r,lowA,Stimuli\green_bar1.png,Stimuli\green_bar1.png,Stimuli\ping.png,downRight,high,downLeft,lowC,midRight,upLeft,upRight,3,rew_low,m,,,,,0,20,20,71,,,0.6,0.7,exp,None,0,-10.14,0,7.16,-7.16,-7.16,-7.16,10.14,0,-7.16,7.16,7.16,7.16,6,216,30,707,,20,21,2,RL,1,F,19,R,2025-06-17_13h07.58.739,RewSL_RL_EEG,
ping,lowA,downRight,DOWN,red,r,high,Stimuli\red_bar1.png,Stimuli\red_bar1.png,Stimuli\ping.png,downLeft,lowB,midLeft,lowC,midRight,upLeft,upRight,3,rew_low,m,,,,,0,21,21,38,,,0.6,0.7,exp,None,0,7.16,-7.16,-7.16,-7.16,-10.14,0,10.14,0,-7.16,7.16,7.16,7.16,6,246,30,707,,21,22,2,RL,1,F,19,R,2025-06-17_13h07.58.739,RewSL_RL_EEG,
ping,lowB,midLeft,UP,red,r,lowA,Stimuli\red_bar1.png,Stimuli\red_bar1.png,Stimuli\ping.png,downRight,high,downLeft,lowC,midRight,upLeft,upRight,3,rew_low,z,,,,,0,22,22,68,,,0.6,0.8,exp,z,1,-10.14,0,7.16,-7.16,-7.16,-7.16,10.14,0,-7.16,7.16,7.16,7.16,6,116,30,708,1.118665800022427,22,23,2,RL,1,F,19,R,2025-06-17_13h07.58.739,RewSL_RL_EEG,
ping,lowC,midRight,DOWN,red,r,lowA,Stimuli\red_bar1.png,Stimuli\red_bar1.png,Stimuli\ping.png,downRight,lowB,midLeft,high,downLeft,upLeft,upRight,3,rew_low,m,,,,,0,23,23,78,,,0.5,0.6,exp,None,0,10.14,0,7.16,-7.16,-10.14,0,-7.16,-7.16,-7.16,7.16,7.16,7.16,6,226,30,708,,23,24,2,RL,1,F,19,R,2025-06-17_13h07.58.739,RewSL_RL_EEG,
ping,lowA,downRight,UP,green,l,high,Stimuli\green_bar1.png,Stimuli\green_bar1.png,Stimuli\ping.png,downLeft,lowB,midLeft,lowC,midRight,upLeft,upRight,3,rew_low,z,,,,,0,24,24,49,,,0.4,0.7,exp,m,0,7.16,-7.16,-7.16,-7.16,-10.14,0,10.14,0,-7.16,7.16,7.16,7.16,6,146,30,708,1.2004760999698192,24,25,2,RL,1,F,19,R,2025-06-17_13h07.58.739,RewSL_RL_EEG,
ping,high,downLeft,UP,red,l,lowA,Stimuli\red_bar1.png,Stimuli\red_bar1.png,Stimuli\ping.png,downRight,lowB,midLeft,lowC,midRight,upLeft,upRight,3,rew_high,z,,,,,0,25,25,16,,,0.5,0.6,exp,None,0,-7.16,-7.16,7.16,-7.16,-10.14,0,10.14,0,-7.16,7.16,7.16,7.16,6,136,31,708,,25,26,2,RL,1,F,19,R,2025-06-17_13h07.58.739,RewSL_RL_EEG,
ping,lowC,midRight,UP,red,l,lowA,Stimuli\red_bar1.png,Stimuli\red_bar1.png,Stimuli\ping.png,downRight,lowB,midLeft,high,downLeft,upLeft,upRight,3,rew_low,z,,,,,0,26,26,88,,,0.5,0.8,exp,None,0,10.14,0,7.16,-7.16,-10.14,0,-7.16,-7.16,-7.16,7.16,7.16,7.16,6,126,30,708,,26,27,2,RL,1,F,19,R,2025-06-17_13h07.58.739,RewSL_RL_EEG,
ping,lowB,midLeft,DOWN,red,l,lowA,Stimuli\red_bar1.png,Stimuli\red_bar1.png,Stimuli\ping.png,downRight,high,downLeft,lowC,midRight,upLeft,upRight,3,rew_low,m,,,,,0,27,27,74,,,0.4,0.6,exp,m,1,-10.14,0,7.16,-7.16,-7.16,-7.16,10.14,0,-7.16,7.16,7.16,7.16,6,216,30,709,0.8103513999958523,27,28,2,RL,1,F,19,R,2025-06-17_13h07.58.739,RewSL_RL_EEG,
ping,lowC,midRight,DOWN,green,r,lowA,Stimuli\green_bar1.png,Stimuli\green_bar1.png,Stimuli\ping.png,downRight,lowB,midLeft,high,downLeft,upLeft,upRight,3,rew_low,m,,,,,0,28,28,79,,,0.5,0.8,exp,None,0,10.14,0,7.16,-7.16,-10.14,0,-7.16,-7.16,-7.16,7.16,7.16,7.16,6,226,30,709,,28,29,2,RL,1,F,19,R,2025-06-17_13h07.58.739,RewSL_RL_EEG,
ping,lowA,downRight,UP,red,l,high,Stimuli\red_bar1.png,Stimuli\red_bar1.png,Stimuli\ping.png,downLeft,lowB,midLeft,lowC,midRight,upLeft,upRight,3,rew_low,z,,,,,0,29,29,32,,,0.5,0.6,exp,None,0,7.16,-7.16,-7.16,-7.16,-10.14,0,10.14,0,-7.16,7.16,7.16,7.16,6,146,30,709,,29,30,2,RL,1,F,19,R,2025-06-17_13h07.58.739,RewSL_RL_EEG,
ping,lowC,midRight,DOWN,green,l,lowA,Stimuli\green_bar1.png,Stimuli\green_bar1.png,Stimuli\ping.png,downRight,lowB,midLeft,high,downLeft,upLeft,upRight,3,rew_low,m,,,,,0,30,30,83,,,0.6,0.6,exp,None,0,10.14,0,7.16,-7.16,-10.14,0,-7.16,-7.16,-7.16,7.16,7.16,7.16,6,226,30,709,,30,31,2,RL,1,F,19,R,2025-06-17_13h07.58.739,RewSL_RL_EEG,
ping,lowC,midRight,UP,green,l,lowA,Stimuli\green_bar1.png,Stimuli\green_bar1.png,Stimuli\ping.png,downRight,lowB,midLeft,high,downLeft,upLeft,upRight,3,rew_low,z,,,,,0,31,31,81,,,0.4,0.8,exp,None,0,10.14,0,7.16,-7.16,-10.14,0,-7.16,-7.16,-7.16,7.16,7.16,7.16,6,126,30,709,,31,32,2,RL,1,F,19,R,2025-06-17_13h07.58.739,RewSL_RL_EEG,
ping,lowC,midRight,UP,green,l,lowA,Stimuli\green_bar1.png,Stimuli\green_bar1.png,Stimuli\ping.png,downRight,lowB,midLeft,high,downLeft,upLeft,upRight,3,rew_low,z,,,,,0,32,32,97,,,0.5,0.7,exp,None,0,10.14,0,7.16,-7.16,-10.14,0,-7.16,-7.16,-7.16,7.16,7.16,7.16,6,126,30,709,,32,33,2,RL,1,F,19,R,2025-06-17_13h07.58.739,RewSL_RL_EEG,
ping,lowA,downRight,DOWN,red,l,high,Stimuli\red_bar1.png,Stimuli\red_bar1.png,Stimuli\ping.png,downLeft,lowB,midLeft,lowC,midRight,upLeft,upRight,3,rew_low,m,,,,,0,33,33,26,,,0.6,0.8,exp,None,0,7.16,-7.16,-7.16,-7.16,-10.14,0,10.14,0,-7.16,7.16,7.16,7.16,6,246,30,709,,33,34,2,RL,1,F,19,R,2025-06-17_13h07.58.739,RewSL_RL_EEG,
ping,lowB,midLeft,UP,green,l,lowA,Stimuli\green_bar1.png,Stimuli\green_bar1.png,Stimuli\ping.png,downRight,high,downLeft,lowC,midRight,upLeft,upRight,3,rew_low,z,,,,,0,34,34,57,,,0.6,0.6,exp,z,1,-10.14,0,7.16,-7.16,-7.16,-7.16,10.14,0,-7.16,7.16,7.16,7.16,6,116,30,710,1.2128366999677382,34,35,2,RL,1,F,19,R,2025-06-17_13h07.58.739,RewSL_RL_EEG,
ping,high,downLeft,DOWN,green,l,lowA,Stimuli\green_bar1.png,Stimuli\green_bar1.png,Stimuli\ping.png,downRight,lowB,midLeft,lowC,midRight,upLeft,upRight,3,rew_high,m,,,,,0,35,35,19,,,0.4,0.7,exp,z,0,-7.16,-7.16,7.16,-7.16,-10.14,0,10.14,0,-7.16,7.16,7.16,7.16,6,236,31,710,1.1271907999762334,35,36,2,RL,1,F,19,R,2025-06-17_13h07.58.739,RewSL_RL_EEG,
ping,lowA,downRight,UP,green,r,high,Stimuli\green_bar1.png,Stimuli\green_bar1.png,Stimuli\ping.png,downLeft,lowB,midLeft,lowC,midRight,upLeft,upRight,3,rew_low,z,,,,,0,36,36,29,,,0.6,0.6,exp,None,0,7.16,-7.16,-7.16,-7.16,-10.14,0,10.14,0,-7.16,7.16,7.16,7.16,6,146,30,710,,36,37,2,RL,1,F,19,R,2025-06-17_13h07.58.739,RewSL_RL_EEG,
ping,lowB,midLeft,DOWN,green,r,lowA,Stimuli\green_bar1.png,Stimuli\green_bar1.png,Stimuli\ping.png,downRight,high,downLeft,lowC,midRight,upLeft,upRight,3,rew_low,m,,,,,0,37,37,55,,,0.6,0.6,exp,m,1,-10.14,0,7.16,-7.16,-7.16,-7.16,10.14,0,-7.16,7.16,7.16,7.16,6,216,30,711,0.8231835999758914,37,38,2,RL,1,F,19,R,2025-06-17_13h07.58.739,RewSL_RL_EEG,
ping,lowB,midLeft,DOWN,red,r,lowA,Stimuli\red_bar1.png,Stimuli\red_bar1.png,Stimuli\ping.png,downRight,high,downLeft,lowC,midRight,upLeft,upRight,3,rew_low,m,,,,,0,38,38,70,,,0.4,0.7,exp,m,1,-10.14,0,7.16,-7.16,-7.16,-7.16,10.14,0,-7.16,7.16,7.16,7.16,6,216,30,712,0.78093439998338,38,39,2,RL,1,F,19,R,2025-06-17_13h07.58.739,RewSL_RL_EEG,
ping,lowB,midLeft,DOWN,green,l,lowA,Stimuli\green_bar1.png,Stimuli\green_bar1.png,Stimuli\ping.png,downRight,high,downLeft,lowC,midRight,upLeft,upRight,3,rew_low,m,,,,,0,39,39,51,,,0.5,0.8,exp,m,1,-10.14,0,7.16,-7.16,-7.16,-7.16,10.14,0,-7.16,7.16,7.16,7.16,6,216,30,713,0.6214373999973759,39,40,2,RL,1,F,19,R,2025-06-17_13h07.58.739,RewSL_RL_EEG,
ping,lowA,downRight,DOWN,green,l,high,Stimuli\green_bar1.png,Stimuli\green_bar1.png,Stimuli\ping.png,downLeft,lowB,midLeft,lowC,midRight,upLeft,upRight,3,rew_low,m,,,,,0,40,40,27,,,0.5,0.7,exp,None,0,7.16,-7.16,-7.16,-7.16,-10.14,0,10.14,0,-7.16,7.16,7.16,7.16,6,246,30,713,,40,41,2,RL,1,F,19,R,2025-06-17_13h07.58.739,RewSL_RL_EEG,
ping,high,downLeft,UP,green,l,lowA,Stimuli\green_bar1.png,Stimuli\green_bar1.png,Stimuli\ping.png,downRight,lowB,midLeft,lowC,midRight,upLeft,upRight,3,rew_high,z,,,,,0,41,41,17,,,0.5,0.7,exp,z,1,-7.16,-7.16,7.16,-7.16,-10.14,0,10.14,0,-7.16,7.16,7.16,7.16,6,136,31,813,1.0761207999894395,41,42,2,RL,1,F,19,R,2025-06-17_13h07.58.739,RewSL_RL_EEG,
ping,lowB,midLeft,DOWN,red,l,lowA,Stimuli\red_bar1.png,Stimuli\red_bar1.png,Stimuli\ping.png,downRight,high,downLeft,lowC,midRight,upLeft,upRight,3,rew_low,m,,,,,0,42,42,58,,,0.6,0.7,exp,m,1,-10.14,0,7.16,-7.16,-7.16,-7.16,10.14,0,-7.16,7.16,7.16,7.16,6,216,30,814,1.0628441000008024,42,43,2,RL,1,F,19,R,2025-06-17_13h07.58.739,RewSL_RL_EEG,
ping,lowC,midRight,DOWN,green,l,lowA,Stimuli\green_bar1.png,Stimuli\green_bar1.png,Stimuli\ping.png,downRight,lowB,midLeft,high,downLeft,upLeft,upRight,3,rew_low,m,,,,,0,43,43,75,,,0.4,0.7,exp,None,0,10.14,0,7.16,-7.16,-10.14,0,-7.16,-7.16,-7.16,7.16,7.16,7.16,6,226,30,814,,43,44,2,RL,1,F,19,R,2025-06-17_13h07.58.739,RewSL_RL_EEG,
ping,lowC,midRight,DOWN,green,l,lowA,Stimuli\green_bar1.png,Stimuli\green_bar1.png,Stimuli\ping.png,downRight,lowB,midLeft,high,downLeft,upLeft,upRight,3,rew_low,m,,,,,0,44,44,91,,,0.5,0.6,exp,None,0,10.14,0,7.16,-7.16,-10.14,0,-7.16,-7.16,-7.16,7.16,7.16,7.16,6,226,30,814,,44,45,2,RL,1,F,19,R,2025-06-17_13h07.58.739,RewSL_RL_EEG,
ping,lowA,downRight,DOWN,green,r,high,Stimuli\green_bar1.png,Stimuli\green_bar1.png,Stimuli\ping.png,downLeft,lowB,midLeft,lowC,midRight,upLeft,upRight,3,rew_low,m,,,,,0,45,45,47,,,0.4,0.6,exp,None,0,7.16,-7.16,-7.16,-7.16,-10.14,0,10.14,0,-7.16,7.16,7.16,7.16,6,246,30,814,,45,46,2,RL,1,F,19,R,2025-06-17_13h07.58.739,RewSL_RL_EEG,
ping,lowA,downRight,DOWN,green,r,high,Stimuli\green_bar1.png,Stimuli\green_bar1.png,Stimuli\ping.png,downLeft,lowB,midLeft,lowC,midRight,upLeft,upRight,3,rew_low,m,,,,,0,46,46,39,,,0.5,0.8,exp,None,0,7.16,-7.16,-7.16,-7.16,-10.14,0,10.14,0,-7.16,7.16,7.16,7.16,6,246,30,814,,46,47,2,RL,1,F,19,R,2025-06-17_13h07.58.739,RewSL_RL_EEG,
ping,high,downLeft,DOWN,green,r,lowA,Stimuli\green_bar1.png,Stimuli\green_bar1.png,Stimuli\ping.png,downRight,lowB,midLeft,lowC,midRight,upLeft,upRight,3,rew_high,m,,,,,0,47,47,15,,,0.6,0.7,exp,m,1,-7.16,-7.16,7.16,-7.16,-10.14,0,10.14,0,-7.16,7.16,7.16,7.16,6,236,31,914,0.8680097000324167,47,48,2,RL,1,F,19,R,2025-06-17_13h07.58.739,RewSL_RL_EEG,
ping,lowA,downRight,DOWN,green,l,high,Stimuli\green_bar1.png,Stimuli\green_bar1.png,Stimuli\ping.png,downLeft,lowB,midLeft,lowC,midRight,upLeft,upRight,3,rew_low,m,,,,,0,48,48,43,,,0.4,0.7,exp,m,1,7.16,-7.16,-7.16,-7.16,-10.14,0,10.14,0,-7.16,7.16,7.16,7.16,6,246,30,915,0.8623423000099137,48,49,2,RL,1,F,19,R,2025-06-17_13h07.58.739,RewSL_RL_EEG,
ping,lowC,midRight,UP,green,l,lowA,Stimuli\green_bar1.png,Stimuli\green_bar1.png,Stimuli\ping.png,downRight,lowB,midLeft,high,downLeft,upLeft,upRight,3,rew_low,z,,,,,0,49,49,89,,,0.5,0.8,exp,None,0,10.14,0,7.16,-7.16,-10.14,0,-7.16,-7.16,-7.16,7.16,7.16,7.16,6,126,30,915,,49,50,2,RL,1,F,19,R,2025-06-17_13h07.58.739,RewSL_RL_EEG,
ping,lowC,midRight,DOWN,green,r,lowA,Stimuli\green_bar1.png,Stimuli\green_bar1.png,Stimuli\ping.png,downRight,lowB,midLeft,high,downLeft,upLeft,upRight,3,rew_low,m,,,,,0,50,50,99,,,0.5,0.7,exp,None,0,10.14,0,7.16,-7.16,-10.14,0,-7.16,-7.16,-7.16,7.16,7.16,7.16,6,226,30,915,,50,51,2,RL,1,F,19,R,2025-06-17_13h07.58.739,RewSL_RL_EEG,
ping,lowA,downRight,DOWN,red,l,high,Stimuli\red_bar1.png,Stimuli\red_bar1.png,Stimuli\ping.png,downLeft,lowB,midLeft,lowC,midRight,upLeft,upRight,3,rew_low,m,,,,,0,51,51,42,,,0.4,0.7,exp,None,0,7.16,-7.16,-7.16,-7.16,-10.14,0,10.14,0,-7.16,7.16,7.16,7.16,6,246,30,915,,51,52,2,RL,1,F,19,R,2025-06-17_13h07.58.739,RewSL_RL_EEG,
ping,lowB,midLeft,DOWN,green,l,lowA,Stimuli\green_bar1.png,Stimuli\green_bar1.png,Stimuli\ping.png,downRight,high,downLeft,lowC,midRight,upLeft,upRight,3,rew_low,m,,,,,0,52,52,67,,,0.6,0.6,exp,m,1,-10.14,0,7.16,-7.16,-7.16,-7.16,10.14,0,-7.16,7.16,7.16,7.16,6,216,30,916,0.9763121000141837,52,53,2,RL,1,F,19,R,2025-06-17_13h07.58.739,RewSL_RL_EEG,
ping,lowB,midLeft,DOWN,red,r,lowA,Stimuli\red_bar1.png,Stimuli\red_bar1.png,Stimuli\ping.png,downRight,high,downLeft,lowC,midRight,upLeft,upRight,3,rew_low,m,,,,,0,53,53,62,,,0.4,0.7,exp,m,1,-10.14,0,7.16,-7.16,-7.16,-7.16,10.14,0,-7.16,7.16,7.16,7.16,6,216,30,917,0.6992901000194252,53,54,2,RL,1,F,19,R,2025-06-17_13h07.58.739,RewSL_RL_EEG,
ping,high,downLeft,DOWN,green,r,lowA,Stimuli\green_bar1.png,Stimuli\green_bar1.png,Stimuli\ping.png,downRight,lowB,midLeft,lowC,midRight,upLeft,upRight,3,rew_high,m,,,,,0,54,54,7,,,0.5,0.7,exp,None,0,-7.16,-7.16,7.16,-7.16,-10.14,0,10.14,0,-7.16,7.16,7.16,7.16,6,236,31,917,,54,55,2,RL,1,F,19,R,2025-06-17_13h07.58.739,RewSL_RL_EEG,
ping,high,downLeft,UP,red,l,lowA,Stimuli\red_bar1.png,Stimuli\red_bar1.png,Stimuli\ping.png,downRight,lowB,midLeft,lowC,midRight,upLeft,upRight,3,rew_high,z,,,,,0,55,55,24,,,0.5,0.8,exp,z,1,-7.16,-7.16,7.16,-7.16,-10.14,0,10.14,0,-7.16,7.16,7.16,7.16,6,136,31,1017,1.0849600000074133,55,56,2,RL,1,F,19,R,2025-06-17_13h07.58.739,RewSL_RL_EEG,
ping,lowA,downRight,UP,green,r,high,Stimuli\green_bar1.png,Stimuli\green_bar1.png,Stimuli\ping.png,downLeft,lowB,midLeft,lowC,midRight,upLeft,upRight,3,rew_low,z,,,,,0,56,56,45,,,0.5,0.7,exp,None,0,7.16,-7.16,-7.16,-7.16,-10.14,0,10.14,0,-7.16,7.16,7.16,7.16,6,146,30,1017,,56,57,2,RL,1,F,19,R,2025-06-17_13h07.58.739,RewSL_RL_EEG,
ping,high,downLeft,DOWN,red,l,lowA,Stimuli\red_bar1.png,Stimuli\red_bar1.png,Stimuli\ping.png,downRight,lowB,midLeft,lowC,midRight,upLeft,upRight,3,rew_high,m,,,,,0,57,57,10,,,0.4,0.7,exp,m,1,-7.16,-7.16,7.16,-7.16,-10.14,0,10.14,0,-7.16,7.16,7.16,7.16,6,236,31,1117,1.1391521000186913,57,58,2,RL,1,F,19,R,2025-06-17_13h07.58.739,RewSL_RL_EEG,
ping,lowC,midRight,UP,red,r,lowA,Stimuli\red_bar1.png,Stimuli\red_bar1.png,Stimuli\ping.png,downRight,lowB,midLeft,high,downLeft,upLeft,upRight,3,rew_low,z,,,,,0,58,58,84,,,0.4,0.8,exp,None,0,10.14,0,7.16,-7.16,-10.14,0,-7.16,-7.16,-7.16,7.16,7.16,7.16,6,126,30,1117,,58,59,2,RL,1,F,19,R,2025-06-17_13h07.58.739,RewSL_RL_EEG,
ping,lowA,downRight,UP,green,l,high,Stimuli\green_bar1.png,Stimuli\green_bar1.png,Stimuli\ping.png,downLeft,lowB,midLeft,lowC,midRight,upLeft,upRight,3,rew_low,z,,,,,0,59,59,41,,,0.5,0.6,exp,z,1,7.16,-7.16,-7.16,-7.16,-10.14,0,10.14,0,-7.16,7.16,7.16,7.16,6,146,30,1118,1.0596978000248782,59,60,2,RL,1,F,19,R,2025-06-17_13h07.58.739,RewSL_RL_EEG,
ping,lowB,midLeft,DOWN,red,r,lowA,Stimuli\red_bar1.png,Stimuli\red_bar1.png,Stimuli\ping.png,downRight,high,downLeft,lowC,midRight,upLeft,upRight,3,rew_low,m,,,,,0,60,60,54,,,0.6,0.6,exp,m,1,-10.14,0,7.16,-7.16,-7.16,-7.16,10.14,0,-7.16,7.16,7.16,7.16,6,216,30,1119,0.8766803999897093,60,61,2,RL,1,F,19,R,2025-06-17_13h07.58.739,RewSL_RL_EEG,
ping,lowC,midRight,DOWN,red,r,lowA,Stimuli\red_bar1.png,Stimuli\red_bar1.png,Stimuli\ping.png,downRight,lowB,midLeft,high,downLeft,upLeft,upRight,3,rew_low,m,,,,,0,61,61,98,,,0.4,0.7,exp,m,1,10.14,0,7.16,-7.16,-10.14,0,-7.16,-7.16,-7.16,7.16,7.16,7.16,6,226,30,1120,1.1931406000512652,61,62,2,RL,1,F,19,R,2025-06-17_13h07.58.739,RewSL_RL_EEG,
ping,lowB,midLeft,DOWN,green,r,lowA,Stimuli\green_bar1.png,Stimuli\green_bar1.png,Stimuli\ping.png,downRight,high,downLeft,lowC,midRight,upLeft,upRight,3,rew_low,m,,,,,0,62,62,63,,,0.6,0.6,exp,m,1,-10.14,0,7.16,-7.16,-7.16,-7.16,10.14,0,-7.16,7.16,7.16,7.16,6,216,30,1121,0.8006315999664366,62,63,2,RL,1,F,19,R,2025-06-17_13h07.58.739,RewSL_RL_EEG,
ping,lowB,midLeft,DOWN,red,l,lowA,Stimuli\red_bar1.png,Stimuli\red_bar1.png,Stimuli\ping.png,downRight,high,downLeft,lowC,midRight,upLeft,upRight,3,rew_low,m,,,,,0,63,63,66,,,0.5,0.6,exp,m,1,-10.14,0,7.16,-7.16,-7.16,-7.16,10.14,0,-7.16,7.16,7.16,7.16,6,216,30,1122,0.6539843999780715,63,64,2,RL,1,F,19,R,2025-06-17_13h07.58.739,RewSL_RL_EEG,
ping,lowC,midRight,UP,red,l,lowA,Stimuli\red_bar1.png,Stimuli\red_bar1.png,Stimuli\ping.png,downRight,lowB,midLeft,high,downLeft,upLeft,upRight,3,rew_low,z,,,,,0,64,64,80,,,0.6,0.7,exp,z,1,10.14,0,7.16,-7.16,-10.14,0,-7.16,-7.16,-7.16,7.16,7.16,7.16,6,126,30,1123,0.7847372000105679,64,65,2,RL,1,F,19,R,2025-06-17_13h07.58.739,RewSL_RL_EEG,
ping,high,downLeft,DOWN,green,r,lowA,Stimuli\green_bar1.png,Stimuli\green_bar1.png,Stimuli\ping.png,downRight,lowB,midLeft,lowC,midRight,upLeft,upRight,3,rew_high,m,,,,,0,65,65,23,,,0.6,0.8,exp,None,0,-7.16,-7.16,7.16,-7.16,-10.14,0,10.14,0,-7.16,7.16,7.16,7.16,6,236,31,1123,,65,66,2,RL,1,F,19,R,2025-06-17_13h07.58.739,RewSL_RL_EEG,
ping,lowA,downRight,DOWN,red,r,high,Stimuli\red_bar1.png,Stimuli\red_bar1.png,Stimuli\ping.png,downLeft,lowB,midLeft,lowC,midRight,upLeft,upRight,3,rew_low,m,,,,,0,66,66,30,,,0.4,0.6,exp,m,1,7.16,-7.16,-7.16,-7.16,-10.14,0,10.14,0,-7.16,7.16,7.16,7.16,6,246,30,1124,0.8261663999874145,66,67,2,RL,1,F,19,R,2025-06-17_13h07.58.739,RewSL_RL_EEG,
ping,high,downLeft,DOWN,red,l,lowA,Stimuli\red_bar1.png,Stimuli\red_bar1.png,Stimuli\ping.png,downRight,lowB,midLeft,lowC,midRight,upLeft,upRight,3,rew_high,m,,,,,0,67,67,18,,,0.4,0.7,exp,m,1,-7.16,-7.16,7.16,-7.16,-10.14,0,10.14,0,-7.16,7.16,7.16,7.16,6,236,31,1224,0.9960064000333659,67,68,2,RL,1,F,19,R,2025-06-17_13h07.58.739,RewSL_RL_EEG,
ping,lowC,midRight,UP,red,r,lowA,Stimuli\red_bar1.png,Stimuli\red_bar1.png,Stimuli\ping.png,downRight,lowB,midLeft,high,downLeft,upLeft,upRight,3,rew_low,z,,,,,0,68,68,92,,,0.5,0.7,exp,None,0,10.14,0,7.16,-7.16,-10.14,0,-7.16,-7.16,-7.16,7.16,7.16,7.16,6,126,30,1224,,68,69,2,RL,1,F,19,R,2025-06-17_13h07.58.739,RewSL_RL_EEG,
ping,lowC,midRight,DOWN,red,r,lowA,Stimuli\red_bar1.png,Stimuli\red_bar1.png,Stimuli\ping.png,downRight,lowB,midLeft,high,downLeft,upLeft,upRight,3,rew_low,m,,,,,0,69,69,86,,,0.4,0.6,exp,m,1,10.14,0,7.16,-7.16,-10.14,0,-7.16,-7.16,-7.16,7.16,7.16,7.16,6,226,30,1225,0.741417300014291,69,70,2,RL,1,F,19,R,2025-06-17_13h07.58.739,RewSL_RL_EEG,
ping,lowC,midRight,UP,red,l,lowA,Stimuli\red_bar1.png,Stimuli\red_bar1.png,Stimuli\ping.png,downRight,lowB,midLeft,high,downLeft,upLeft,upRight,3,rew_low,z,,,,,0,70,70,96,,,0.5,0.6,exp,z,1,10.14,0,7.16,-7.16,-10.14,0,-7.16,-7.16,-7.16,7.16,7.16,7.16,6,126,30,1226,0.9505604999721982,70,71,2,RL,1,F,19,R,2025-06-17_13h07.58.739,RewSL_RL_EEG,
ping,lowA,downRight,DOWN,red,l,high,Stimuli\red_bar1.png,Stimuli\red_bar1.png,Stimuli\ping.png,downLeft,lowB,midLeft,lowC,midRight,upLeft,upRight,3,rew_low,m,,,,,0,71,71,34,,,0.4,0.7,exp,m,1,7.16,-7.16,-7.16,-7.16,-10.14,0,10.14,0,-7.16,7.16,7.16,7.16,6,246,30,1227,0.6839715000241995,71,72,2,RL,1,F,19,R,2025-06-17_13h07.58.739,RewSL_RL_EEG,
ping,lowA,downRight,UP,red,r,high,Stimuli\red_bar1.png,Stimuli\red_bar1.png,Stimuli\ping.png,downLeft,lowB,midLeft,lowC,midRight,upLeft,upRight,3,rew_low,z,,,,,0,72,72,36,,,0.4,0.6,exp,None,0,7.16,-7.16,-7.16,-7.16,-10.14,0,10.14,0,-7.16,7.16,7.16,7.16,6,146,30,1227,,72,73,2,RL,1,F,19,R,2025-06-17_13h07.58.739,RewSL_RL_EEG,
ping,lowA,downRight,UP,red,r,high,Stimuli\red_bar1.png,Stimuli\red_bar1.png,Stimuli\ping.png,downLeft,lowB,midLeft,lowC,midRight,upLeft,upRight,3,rew_low,z,,,,,0,73,73,44,,,0.6,0.6,exp,None,0,7.16,-7.16,-7.16,-7.16,-10.14,0,10.14,0,-7.16,7.16,7.16,7.16,6,146,30,1227,,73,74,2,RL,1,F,19,R,2025-06-17_13h07.58.739,RewSL_RL_EEG,
ping,lowA,downRight,UP,green,r,high,Stimuli\green_bar1.png,Stimuli\green_bar1.png,Stimuli\ping.png,downLeft,lowB,midLeft,lowC,midRight,upLeft,upRight,3,rew_low,z,,,,,0,74,74,37,,,0.6,0.7,exp,None,0,7.16,-7.16,-7.16,-7.16,-10.14,0,10.14,0,-7.16,7.16,7.16,7.16,6,146,30,1227,,74,75,2,RL,1,F,19,R,2025-06-17_13h07.58.739,RewSL_RL_EEG,
ping,high,downLeft,UP,green,r,lowA,Stimuli\green_bar1.png,Stimuli\green_bar1.png,Stimuli\ping.png,downRight,lowB,midLeft,lowC,midRight,upLeft,upRight,3,rew_high,z,,,,,0,75,75,13,,,0.5,0.6,exp,None,0,-7.16,-7.16,7.16,-7.16,-10.14,0,10.14,0,-7.16,7.16,7.16,7.16,6,136,31,1227,,75,76,2,RL,1,F,19,R,2025-06-17_13h07.58.739,RewSL_RL_EEG,
ping,lowC,midRight,DOWN,red,r,lowA,Stimuli\red_bar1.png,Stimuli\red_bar1.png,Stimuli\ping.png,downRight,lowB,midLeft,high,downLeft,upLeft,upRight,3,rew_low,m,,,,,0,76,76,94,,,0.4,0.8,exp,None,0,10.14,0,7.16,-7.16,-10.14,0,-7.16,-7.16,-7.16,7.16,7.16,7.16,6,226,30,1227,,76,77,2,RL,1,F,19,R,2025-06-17_13h07.58.739,RewSL_RL_EEG,
ping,high,downLeft,UP,green,l,lowA,Stimuli\green_bar1.png,Stimuli\green_bar1.png,Stimuli\ping.png,downRight,lowB,midLeft,lowC,midRight,upLeft,upRight,3,rew_high,z,,,,,0,77,77,9,,,0.4,0.7,exp,z,1,-7.16,-7.16,7.16,-7.16,-10.14,0,10.14,0,-7.16,7.16,7.16,7.16,6,136,31,1327,1.0423249999876134,77,78,2,RL,1,F,19,R,2025-06-17_13h07.58.739,RewSL_RL_EEG,
ping,lowA,downRight,UP,red,l,high,Stimuli\red_bar1.png,Stimuli\red_bar1.png,Stimuli\ping.png,downLeft,lowB,midLeft,lowC,midRight,upLeft,upRight,3,rew_low,z,,,,,0,78,78,40,,,0.4,0.7,exp,z,1,7.16,-7.16,-7.16,-7.16,-10.14,0,10.14,0,-7.16,7.16,7.16,7.16,6,146,30,1328,1.1521609000046737,78,79,2,RL,1,F,19,R,2025-06-17_13h07.58.739,RewSL_RL_EEG,
ping,high,downLeft,UP,red,r,lowA,Stimuli\red_bar1.png,Stimuli\red_bar1.png,Stimuli\ping.png,downRight,lowB,midLeft,lowC,midRight,upLeft,upRight,3,rew_high,z,,,,,0,79,79,4,,,0.4,0.6,exp,z,1,-7.16,-7.16,7.16,-7.16,-10.14,0,10.14,0,-7.16,7.16,7.16,7.16,6,136,31,1428,1.0963639999972656,79,80,2,RL,1,F,19,R,2025-06-17_13h07.58.739,RewSL_RL_EEG,
ping,lowB,midLeft,UP,green,l,lowA,Stimuli\green_bar1.png,Stimuli\green_bar1.png,Stimuli\ping.png,downRight,high,downLeft,lowC,midRight,upLeft,upRight,3,rew_low,z,,,,,0,80,80,73,,,0.4,0.7,exp,z,1,-10.14,0,7.16,-7.16,-7.16,-7.16,10.14,0,-7.16,7.16,7.16,7.16,6,116,30,1429,1.2832941000233404,80,81,2,RL,1,F,19,R,2025-06-17_13h07.58.739,RewSL_RL_EEG,
ping,lowA,downRight,UP,red,r,high,Stimuli\red_bar1.png,Stimuli\red_bar1.png,Stimuli\ping.png,downLeft,lowB,midLeft,lowC,midRight,upLeft,upRight,3,rew_low,z,,,,,0,81,81,28,,,0.4,0.6,exp,z,1,7.16,-7.16,-7.16,-7.16,-10.14,0,10.14,0,-7.16,7.16,7.16,7.16,6,146,30,1430,1.080165199993644,81,82,2,RL,1,F,19,R,2025-06-17_13h07.58.739,RewSL_RL_EEG,
ping,lowC,midRight,UP,red,r,lowA,Stimuli\red_bar1.png,Stimuli\red_bar1.png,Stimuli\ping.png,downRight,lowB,midLeft,high,downLeft,upLeft,upRight,3,rew_low,z,,,,,0,82,82,76,,,0.4,0.7,exp,z,1,10.14,0,7.16,-7.16,-10.14,0,-7.16,-7.16,-7.16,7.16,7.16,7.16,6,126,30,1431,1.1708515000063926,82,83,2,RL,1,F,19,R,2025-06-17_13h07.58.739,RewSL_RL_EEG,
ping,lowA,downRight,UP,red,l,high,Stimuli\red_bar1.png,Stimuli\red_bar1.png,Stimuli\ping.png,downLeft,lowB,midLeft,lowC,midRight,upLeft,upRight,3,rew_low,z,,,,,0,83,83,48,,,0.6,0.8,exp,None,0,7.16,-7.16,-7.16,-7.16,-10.14,0,10.14,0,-7.16,7.16,7.16,7.16,6,146,30,1431,,83,84,2,RL,1,F,19,R,2025-06-17_13h07.58.739,RewSL_RL_EEG,
ping,high,downLeft,UP,green,r,lowA,Stimuli\green_bar1.png,Stimuli\green_bar1.png,Stimuli\ping.png,downRight,lowB,midLeft,lowC,midRight,upLeft,upRight,3,rew_high,z,,,,,0,84,84,21,,,0.6,0.8,exp,z,1,-7.16,-7.16,7.16,-7.16,-10.14,0,10.14,0,-7.16,7.16,7.16,7.16,6,136,31,1531,0.9047466000192799,84,85,2,RL,1,F,19,R,2025-06-17_13h07.58.739,RewSL_RL_EEG,
ping,high,downLeft,UP,red,r,lowA,Stimuli\red_bar1.png,Stimuli\red_bar1.png,Stimuli\ping.png,downRight,lowB,midLeft,lowC,midRight,upLeft,upRight,3,rew_high,z,,,,,0,85,85,12,,,0.5,0.8,exp,z,1,-7.16,-7.16,7.16,-7.16,-10.14,0,10.14,0,-7.16,7.16,7.16,7.16,6,136,31,1631,0.5392314000055194,85,86,2,RL,1,F,19,R,2025-06-17_13h07.58.739,RewSL_RL_EEG,
ping,high,downLeft,UP,green,r,lowA,Stimuli\green_bar1.png,Stimuli\green_bar1.png,Stimuli\ping.png,downRight,lowB,midLeft,lowC,midRight,upLeft,upRight,3,rew_high,z,,,,,0,86,86,5,,,0.5,0.7,exp,z,1,-7.16,-7.16,7.16,-7.16,-10.14,0,10.14,0,-7.16,7.16,7.16,7.16,6,136,31,1731,0.7560892999754287,86,87,2,RL,1,F,19,R,2025-06-17_13h07.58.739,RewSL_RL_EEG,
ping,lowC,midRight,DOWN,green,r,lowA,Stimuli\green_bar1.png,Stimuli\green_bar1.png,Stimuli\ping.png,downRight,lowB,midLeft,high,downLeft,upLeft,upRight,3,rew_low,m,,,,,0,87,87,95,,,0.6,0.6,exp,m,1,10.14,0,7.16,-7.16,-10.14,0,-7.16,-7.16,-7.16,7.16,7.16,7.16,6,226,30,1732,0.9348558000056073,87,88,2,RL,1,F,19,R,2025-06-17_13h07.58.739,RewSL_RL_EEG,
ping,high,downLeft,UP,red,l,lowA,Stimuli\red_bar1.png,Stimuli\red_bar1.png,Stimuli\ping.png,downRight,lowB,midLeft,lowC,midRight,upLeft,upRight,3,rew_high,z,,,,,0,88,88,0,,,0.5,0.7,exp,z,1,-7.16,-7.16,7.16,-7.16,-10.14,0,10.14,0,-7.16,7.16,7.16,7.16,6,136,31,1832,0.6888527999981306,88,89,2,RL,1,F,19,R,2025-06-17_13h07.58.739,RewSL_RL_EEG,
ping,lowA,downRight,DOWN,red,r,high,Stimuli\red_bar1.png,Stimuli\red_bar1.png,Stimuli\ping.png,downLeft,lowB,midLeft,lowC,midRight,upLeft,upRight,3,rew_low,m,,,,,0,89,89,46,,,0.4,0.7,exp,m,1,7.16,-7.16,-7.16,-7.16,-10.14,0,10.14,0,-7.16,7.16,7.16,7.16,6,246,30,1833,0.7764866999932565,89,90,2,RL,1,F,19,R,2025-06-17_13h07.58.739,RewSL_RL_EEG,
ping,lowB,midLeft,UP,red,r,lowA,Stimuli\red_bar1.png,Stimuli\red_bar1.png,Stimuli\ping.png,downRight,high,downLeft,lowC,midRight,upLeft,upRight,3,rew_low,z,,,,,0,90,90,60,,,0.5,0.8,exp,None,0,-10.14,0,7.16,-7.16,-7.16,-7.16,10.14,0,-7.16,7.16,7.16,7.16,6,116,30,1833,,90,91,2,RL,1,F,19,R,2025-06-17_13h07.58.739,RewSL_RL_EEG,
ping,lowA,downRight,UP,green,l,high,Stimuli\green_bar1.png,Stimuli\green_bar1.png,Stimuli\ping.png,downLeft,lowB,midLeft,lowC,midRight,upLeft,upRight,3,rew_low,z,,,,,0,91,91,33,,,0.5,0.8,exp,m,0,7.16,-7.16,-7.16,-7.16,-10.14,0,10.14,0,-7.16,7.16,7.16,7.16,6,146,30,1833,1.1015712000080384,91,92,2,RL,1,F,19,R,2025-06-17_13h07.58.739,RewSL_RL_EEG,
ping,lowB,midLeft,UP,green,r,lowA,Stimuli\green_bar1.png,Stimuli\green_bar1.png,Stimuli\ping.png,downRight,high,downLeft,lowC,midRight,upLeft,upRight,3,rew_low,z,,,,,0,92,92,61,,,0.5,0.7,exp,z,1,-10.14,0,7.16,-7.16,-7.16,-7.16,10.14,0,-7.16,7.16,7.16,7.16,6,116,30,1834,0.6457593000377528,92,93,2,RL,1,F,19,R,2025-06-17_13h07.58.739,RewSL_RL_EEG,
ping,lowC,midRight,UP,green,r,lowA,Stimuli\green_bar1.png,Stimuli\green_bar1.png,Stimuli\ping.png,downRight,lowB,midLeft,high,downLeft,upLeft,upRight,3,rew_low,z,,,,,0,93,93,85,,,0.5,0.6,exp,None,0,10.14,0,7.16,-7.16,-10.14,0,-7.16,-7.16,-7.16,7.16,7.16,7.16,6,126,30,1834,,93,94,2,RL,1,F,19,R,2025-06-17_13h07.58.739,RewSL_RL_EEG,
ping,lowB,midLeft,UP,red,l,lowA,Stimuli\red_bar1.png,Stimuli\red_bar1.png,Stimuli\ping.png,downRight,high,downLeft,lowC,midRight,upLeft,upRight,3,rew_low,z,,,,,0,94,94,64,,,0.6,0.7,exp,z,1,-10.14,0,7.16,-7.16,-7.16,-7.16,10.14,0,-7.16,7.16,7.16,7.16,6,116,30,1835,0.7219516000477597,94,95,2,RL,1,F,19,R,2025-06-17_13h07.58.739,RewSL_RL_EEG,
ping,high,downLeft,UP,red,r,lowA,Stimuli\red_bar1.png,Stimuli\red_bar1.png,Stimuli\ping.png,downRight,lowB,midLeft,lowC,midRight,upLeft,upRight,3,rew_high,z,,,,,0,95,95,20,,,0.6,0.7,exp,z,1,-7.16,-7.16,7.16,-7.16,-10.14,0,10.14,0,-7.16,7.16,7.16,7.16,6,136,31,1935,0.755974400031846,95,96,2,RL,1,F,19,R,2025-06-17_13h07.58.739,RewSL_RL_EEG,
ping,lowB,midLeft,UP,green,r,lowA,Stimuli\green_bar1.png,Stimuli\green_bar1.png,Stimuli\ping.png,downRight,high,downLeft,lowC,midRight,upLeft,upRight,3,rew_low,z,,,,,0,96,96,53,,,0.4,0.7,exp,z,1,-10.14,0,7.16,-7.16,-7.16,-7.16,10.14,0,-7.16,7.16,7.16,7.16,6,116,30,1936,0.5732189000118524,96,97,2,RL,1,F,19,R,2025-06-17_13h07.58.739,RewSL_RL_EEG,
ping,lowC,midRight,DOWN,red,l,lowA,Stimuli\red_bar1.png,Stimuli\red_bar1.png,Stimuli\ping.png,downRight,lowB,midLeft,high,downLeft,upLeft,upRight,3,rew_low,m,,,,,0,97,97,82,,,0.4,0.8,exp,None,0,10.14,0,7.16,-7.16,-10.14,0,-7.16,-7.16,-7.16,7.16,7.16,7.16,6,226,30,1936,,97,98,2,RL,1,F,19,R,2025-06-17_13h07.58.739,RewSL_RL_EEG,
ping,lowB,midLeft,DOWN,green,l,lowA,Stimuli\green_bar1.png,Stimuli\green_bar1.png,Stimuli\ping.png,downRight,high,downLeft,lowC,midRight,upLeft,upRight,3,rew_low,m,,,,,0,98,98,59,,,0.4,0.6,exp,m,1,-10.14,0,7.16,-7.16,-7.16,-7.16,10.14,0,-7.16,7.16,7.16,7.16,6,216,30,1937,0.8090446999995038,98,99,2,RL,1,F,19,R,2025-06-17_13h07.58.739,RewSL_RL_EEG,
ping,lowC,midRight,DOWN,red,l,lowA,Stimuli\red_bar1.png,Stimuli\red_bar1.png,Stimuli\ping.png,downRight,lowB,midLeft,high,downLeft,upLeft,upRight,3,rew_low,m,,,,,0,99,99,90,,,0.4,0.7,exp,None,0,10.14,0,7.16,-7.16,-10.14,0,-7.16,-7.16,-7.16,7.16,7.16,7.16,6,226,30,1937,,99,100,2,RL,1,F,19,R,2025-06-17_13h07.58.739,RewSL_RL_EEG,
ping,lowA,midLeft,DOWN,green,r,high,Stimuli\green_bar1.png,Stimuli\green_bar1.png,Stimuli\ping.png,midRight,lowB,downRight,lowC,downLeft,upLeft,upRight,2,rew_low,m,,,,,0,0,0,39,,,0.5,0.6,exp,m,1,-10.14,0,10.14,0,7.16,-7.16,-7.16,-7.16,-7.16,7.16,7.16,7.16,4,214,30,1938,1.0055739000090398,100,101,2,RL,1,F,19,R,2025-06-17_13h07.58.739,RewSL_RL_EEG,
ping,lowB,downRight,UP,green,r,lowA,Stimuli\green_bar1.png,Stimuli\green_bar1.png,Stimuli\ping.png,midLeft,high,midRight,lowC,downLeft,upLeft,upRight,2,rew_low,z,,,,,0,1,1,61,,,0.6,0.7,exp,z,1,7.16,-7.16,-10.14,0,10.14,0,-7.16,-7.16,-7.16,7.16,7.16,7.16,4,144,30,1939,0.9795140000060201,101,102,2,RL,1,F,19,R,2025-06-17_13h07.58.739,RewSL_RL_EEG,
ping,lowA,midLeft,DOWN,red,l,high,Stimuli\red_bar1.png,Stimuli\red_bar1.png,Stimuli\ping.png,midRight,lowB,downRight,lowC,downLeft,upLeft,upRight,2,rew_low,m,,,,,0,2,2,26,,,0.5,0.6,exp,m,1,-10.14,0,10.14,0,7.16,-7.16,-7.16,-7.16,-7.16,7.16,7.16,7.16,4,214,30,1940,0.7503885999904014,102,103,2,RL,1,F,19,R,2025-06-17_13h07.58.739,RewSL_RL_EEG,
ping,high,midRight,DOWN,green,r,lowA,Stimuli\green_bar1.png,Stimuli\green_bar1.png,Stimuli\ping.png,midLeft,lowB,downRight,lowC,downLeft,upLeft,upRight,2,rew_high,m,,,,,0,3,3,15,,,0.5,0.7,exp,z,0,10.14,0,-10.14,0,7.16,-7.16,-7.16,-7.16,-7.16,7.16,7.16,7.16,4,224,31,1940,0.948172899952624,103,104,2,RL,1,F,19,R,2025-06-17_13h07.58.739,RewSL_RL_EEG,
ping,high,midRight,UP,green,r,lowA,Stimuli\green_bar1.png,Stimuli\green_bar1.png,Stimuli\ping.png,midLeft,lowB,downRight,lowC,downLeft,upLeft,upRight,2,rew_high,z,,,,,0,4,4,13,,,0.6,0.8,exp,z,1,10.14,0,-10.14,0,7.16,-7.16,-7.16,-7.16,-7.16,7.16,7.16,7.16,4,124,31,2040,0.8088442999869585,104,105,2,RL,1,F,19,R,2025-06-17_13h07.58.739,RewSL_RL_EEG,
ping,lowA,midLeft,UP,red,r,high,Stimuli\red_bar1.png,Stimuli\red_bar1.png,Stimuli\ping.png,midRight,lowB,downRight,lowC,downLeft,upLeft,upRight,2,rew_low,z,,,,,0,5,5,44,,,0.5,0.6,exp,z,1,-10.14,0,10.14,0,7.16,-7.16,-7.16,-7.16,-7.16,7.16,7.16,7.16,4,114,30,2041,0.48387639998691157,105,106,2,RL,1,F,19,R,2025-06-17_13h07.58.739,RewSL_RL_EEG,
ping,lowB,downRight,UP,red,r,lowA,Stimuli\red_bar1.png,Stimuli\red_bar1.png,Stimuli\ping.png,midLeft,high,midRight,lowC,downLeft,upLeft,upRight,2,rew_low,z,,,,,0,6,6,52,,,0.5,0.6,exp,z,1,7.16,-7.16,-10.14,0,10.14,0,-7.16,-7.16,-7.16,7.16,7.16,7.16,4,144,30,2042,0.8097710000001825,106,107,2,RL,1,F,19,R,2025-06-17_13h07.58.739,RewSL_RL_EEG,
ping,high,midRight,DOWN,green,l,lowA,Stimuli\green_bar1.png,Stimuli\green_bar1.png,Stimuli\ping.png,midLeft,lowB,downRight,lowC,downLeft,upLeft,upRight,2,rew_high,m,,,,,0,7,7,11,,,0.5,0.7,exp,None,0,10.14,0,-10.14,0,7.16,-7.16,-7.16,-7.16,-7.16,7.16,7.16,7.16,4,224,31,2042,,107,108,2,RL,1,F,19,R,2025-06-17_13h07.58.739,RewSL_RL_EEG,
ping,high,midRight,UP,green,r,lowA,Stimuli\green_bar1.png,Stimuli\green_bar1.png,Stimuli\ping.png,midLeft,lowB,downRight,lowC,downLeft,upLeft,upRight,2,rew_high,z,,,,,0,8,8,21,,,0.5,0.6,exp,z,1,10.14,0,-10.14,0,7.16,-7.16,-7.16,-7.16,-7.16,7.16,7.16,7.16,4,124,31,2142,0.8139703000197187,108,109,2,RL,1,F,19,R,2025-06-17_13h07.58.739,RewSL_RL_EEG,
ping,lowA,midLeft,UP,green,r,high,Stimuli\green_bar1.png,Stimuli\green_bar1.png,Stimuli\ping.png,midRight,lowB,downRight,lowC,downLeft,upLeft,upRight,2,rew_low,z,,,,,0,9,9,45,,,0.5,0.8,exp,z,1,-10.14,0,10.14,0,7.16,-7.16,-7.16,-7.16,-7.16,7.16,7.16,7.16,4,114,30,2143,0.530112000007648,109,110,2,RL,1,F,19,R,2025-06-17_13h07.58.739,RewSL_RL_EEG,
ping,lowB,downRight,UP,red,r,lowA,Stimuli\red_bar1.png,Stimuli\red_bar1.png,Stimuli\ping.png,midLeft,high,midRight,lowC,downLeft,upLeft,upRight,2,rew_low,z,,,,,0,10,10,68,,,0.5,0.7,exp,z,1,7.16,-7.16,-10.14,0,10.14,0,-7.16,-7.16,-7.16,7.16,7.16,7.16,4,144,30,2144,1.243385899986606,110,111,2,RL,1,F,19,R,2025-06-17_13h07.58.739,RewSL_RL_EEG,
ping,lowB,downRight,DOWN,green,r,lowA,Stimuli\green_bar1.png,Stimuli\green_bar1.png,Stimuli\ping.png,midLeft,high,midRight,lowC,downLeft,upLeft,upRight,2,rew_low,m,,,,,0,11,11,71,,,0.5,0.6,exp,z,0,7.16,-7.16,-10.14,0,10.14,0,-7.16,-7.16,-7.16,7.16,7.16,7.16,4,244,30,2144,0.8721810000133701,111,112,2,RL,1,F,19,R,2025-06-17_13h07.58.739,RewSL_RL_EEG,
ping,high,midRight,DOWN,red,l,lowA,Stimuli\red_bar1.png,Stimuli\red_bar1.png,Stimuli\ping.png,midLeft,lowB,downRight,lowC,downLeft,upLeft,upRight,2,rew_high,m,,,,,0,12,12,2,,,0.4,0.7,exp,m,1,10.14,0,-10.14,0,7.16,-7.16,-7.16,-7.16,-7.16,7.16,7.16,7.16,4,224,31,2244,0.8516225999919698,112,113,2,RL,1,F,19,R,2025-06-17_13h07.58.739,RewSL_RL_EEG,
ping,lowC,downLeft,DOWN,red,l,lowA,Stimuli\red_bar1.png,Stimuli\red_bar1.png,Stimuli\ping.png,midLeft,lowB,downRight,high,midRight,upLeft,upRight,2,rew_low,m,,,,,0,13,13,82,,,0.5,0.6,exp,m,1,-7.16,-7.16,-10.14,0,7.16,-7.16,10.14,0,-7.16,7.16,7.16,7.16,4,234,30,2245,0.7920318000251427,113,114,2,RL,1,F,19,R,2025-06-17_13h07.58.739,RewSL_RL_EEG,
ping,lowA,midLeft,DOWN,green,r,high,Stimuli\green_bar1.png,Stimuli\green_bar1.png,Stimuli\ping.png,midRight,lowB,downRight,lowC,downLeft,upLeft,upRight,2,rew_low,m,,,,,0,14,14,31,,,0.4,0.8,exp,m,1,-10.14,0,10.14,0,7.16,-7.16,-7.16,-7.16,-7.16,7.16,7.16,7.16,4,214,30,2246,0.7858995000133291,114,115,2,RL,1,F,19,R,2025-06-17_13h07.58.739,RewSL_RL_EEG,
ping,lowC,downLeft,UP,red,r,lowA,Stimuli\red_bar1.png,Stimuli\red_bar1.png,Stimuli\ping.png,midLeft,lowB,downRight,high,midRight,upLeft,upRight,2,rew_low,z,,,,,0,15,15,92,,,0.4,0.6,exp,z,1,-7.16,-7.16,-10.14,0,7.16,-7.16,10.14,0,-7.16,7.16,7.16,7.16,4,134,30,2247,0.8330941000021994,115,116,2,RL,1,F,19,R,2025-06-17_13h07.58.739,RewSL_RL_EEG,
ping,lowA,midLeft,UP,green,l,high,Stimuli\green_bar1.png,Stimuli\green_bar1.png,Stimuli\ping.png,midRight,lowB,downRight,lowC,downLeft,upLeft,upRight,2,rew_low,z,,,,,0,16,16,33,,,0.5,0.7,exp,z,1,-10.14,0,10.14,0,7.16,-7.16,-7.16,-7.16,-7.16,7.16,7.16,7.16,4,114,30,2248,0.9380460999673232,116,117,2,RL,1,F,19,R,2025-06-17_13h07.58.739,RewSL_RL_EEG,
ping,lowC,downLeft,UP,green,l,lowA,Stimuli\green_bar1.png,Stimuli\green_bar1.png,Stimuli\ping.png,midLeft,lowB,downRight,high,midRight,upLeft,upRight,2,rew_low,z,,,,,0,17,17,81,,,0.6,0.8,exp,z,1,-7.16,-7.16,-10.14,0,7.16,-7.16,10.14,0,-7.16,7.16,7.16,7.16,4,134,30,2249,0.6315944999805652,117,118,2,RL,1,F,19,R,2025-06-17_13h07.58.739,RewSL_RL_EEG,
ping,high,midRight,DOWN,red,l,lowA,Stimuli\red_bar1.png,Stimuli\red_bar1.png,Stimuli\ping.png,midLeft,lowB,downRight,lowC,downLeft,upLeft,upRight,2,rew_high,m,,,,,0,18,18,10,,,0.5,0.8,exp,m,1,10.14,0,-10.14,0,7.16,-7.16,-7.16,-7.16,-7.16,7.16,7.16,7.16,4,224,31,2349,0.8398316000238992,118,119,2,RL,1,F,19,R,2025-06-17_13h07.58.739,RewSL_RL_EEG,
ping,lowB,downRight,UP,red,r,lowA,Stimuli\red_bar1.png,Stimuli\red_bar1.png,Stimuli\ping.png,midLeft,high,midRight,lowC,downLeft,upLeft,upRight,2,rew_low,z,,,,,0,19,19,60,,,0.6,0.7,exp,z,1,7.16,-7.16,-10.14,0,10.14,0,-7.16,-7.16,-7.16,7.16,7.16,7.16,4,144,30,2350,0.8589823999791406,119,120,2,RL,1,F,19,R,2025-06-17_13h07.58.739,RewSL_RL_EEG,
ping,high,midRight,DOWN,red,r,lowA,Stimuli\red_bar1.png,Stimuli\red_bar1.png,Stimuli\ping.png,midLeft,lowB,downRight,lowC,downLeft,upLeft,upRight,2,rew_high,m,,,,,0,20,20,14,,,0.6,0.8,exp,m,1,10.14,0,-10.14,0,7.16,-7.16,-7.16,-7.16,-7.16,7.16,7.16,7.16,4,224,31,2450,0.6727019000099972,120,121,2,RL,1,F,19,R,2025-06-17_13h07.58.739,RewSL_RL_EEG,
ping,lowB,downRight,DOWN,green,l,lowA,Stimuli\green_bar1.png,Stimuli\green_bar1.png,Stimuli\ping.png,midLeft,high,midRight,lowC,downLeft,upLeft,upRight,2,rew_low,m,,,,,0,21,21,67,,,0.6,0.6,exp,None,0,7.16,-7.16,-10.14,0,10.14,0,-7.16,-7.16,-7.16,7.16,7.16,7.16,4,244,30,2450,,121,122,2,RL,1,F,19,R,2025-06-17_13h07.58.739,RewSL_RL_EEG,
ping,lowA,midLeft,DOWN,green,l,high,Stimuli\green_bar1.png,Stimuli\green_bar1.png,Stimuli\ping.png,midRight,lowB,downRight,lowC,downLeft,upLeft,upRight,2,rew_low,m,,,,,0,22,22,27,,,0.4,0.8,exp,m,1,-10.14,0,10.14,0,7.16,-7.16,-7.16,-7.16,-7.16,7.16,7.16,7.16,4,214,30,2451,0.7543476999853738,122,123,2,RL,1,F,19,R,2025-06-17_13h07.58.739,RewSL_RL_EEG,
ping,lowC,downLeft,UP,green,l,lowA,Stimuli\green_bar1.png,Stimuli\green_bar1.png,Stimuli\ping.png,midLeft,lowB,downRight,high,midRight,upLeft,upRight,2,rew_low,z,,,,,0,23,23,89,,,0.6,0.7,exp,z,1,-7.16,-7.16,-10.14,0,7.16,-7.16,10.14,0,-7.16,7.16,7.16,7.16,4,134,30,2452,0.839865899994038,123,124,2,RL,1,F,19,R,2025-06-17_13h07.58.739,RewSL_RL_EEG,
ping,lowC,downLeft,DOWN,green,l,lowA,Stimuli\green_bar1.png,Stimuli\green_bar1.png,Stimuli\ping.png,midLeft,lowB,downRight,high,midRight,upLeft,upRight,2,rew_low,m,,,,,0,24,24,83,,,0.5,0.7,exp,m,1,-7.16,-7.16,-10.14,0,7.16,-7.16,10.14,0,-7.16,7.16,7.16,7.16,4,234,30,2453,0.8720323999878019,124,125,2,RL,1,F,19,R,2025-06-17_13h07.58.739,RewSL_RL_EEG,
ping,lowB,downRight,DOWN,red,l,lowA,Stimuli\red_bar1.png,Stimuli\red_bar1.png,Stimuli\ping.png,midLeft,high,midRight,lowC,downLeft,upLeft,upRight,2,rew_low,m,,,,,0,25,25,58,,,0.5,0.8,exp,m,1,7.16,-7.16,-10.14,0,10.14,0,-7.16,-7.16,-7.16,7.16,7.16,7.16,4,244,30,2454,0.814078499970492,125,126,2,RL,1,F,19,R,2025-06-17_13h07.58.739,RewSL_RL_EEG,
ping,lowB,downRight,UP,green,r,lowA,Stimuli\green_bar1.png,Stimuli\green_bar1.png,Stimuli\ping.png,midLeft,high,midRight,lowC,downLeft,upLeft,upRight,2,rew_low,z,,,,,0,26,26,69,,,0.5,0.6,exp,z,1,7.16,-7.16,-10.14,0,10.14,0,-7.16,-7.16,-7.16,7.16,7.16,7.16,4,144,30,2455,0.6914526000036858,126,127,2,RL,1,F,19,R,2025-06-17_13h07.58.739,RewSL_RL_EEG,
ping,lowB,downRight,DOWN,red,r,lowA,Stimuli\red_bar1.png,Stimuli\red_bar1.png,Stimuli\ping.png,midLeft,high,midRight,lowC,downLeft,upLeft,upRight,2,rew_low,m,,,,,0,27,27,62,,,0.5,0.7,exp,m,1,7.16,-7.16,-10.14,0,10.14,0,-7.16,-7.16,-7.16,7.16,7.16,7.16,4,244,30,2456,0.6172287999652326,127,128,2,RL,1,F,19,R,2025-06-17_13h07.58.739,RewSL_RL_EEG,
ping,lowC,downLeft,DOWN,red,r,lowA,Stimuli\red_bar1.png,Stimuli\red_bar1.png,Stimuli\ping.png,midLeft,lowB,downRight,high,midRight,upLeft,upRight,2,rew_low,m,,,,,0,28,28,78,,,0.6,0.8,exp,m,1,-7.16,-7.16,-10.14,0,7.16,-7.16,10.14,0,-7.16,7.16,7.16,7.16,4,234,30,2457,0.8225871999748051,128,129,2,RL,1,F,19,R,2025-06-17_13h07.58.739,RewSL_RL_EEG,
ping,lowA,midLeft,DOWN,green,l,high,Stimuli\green_bar1.png,Stimuli\green_bar1.png,Stimuli\ping.png,midRight,lowB,downRight,lowC,downLeft,upLeft,upRight,2,rew_low,m,,,,,0,29,29,35,,,0.5,0.7,exp,None,0,-10.14,0,10.14,0,7.16,-7.16,-7.16,-7.16,-7.16,7.16,7.16,7.16,4,214,30,2457,,129,130,2,RL,1,F,19,R,2025-06-17_13h07.58.739,RewSL_RL_EEG,
ping,lowA,midLeft,UP,red,r,high,Stimuli\red_bar1.png,Stimuli\red_bar1.png,Stimuli\ping.png,midRight,lowB,downRight,lowC,downLeft,upLeft,upRight,2,rew_low,z,,,,,0,30,30,28,,,0.5,0.6,exp,z,1,-10.14,0,10.14,0,7.16,-7.16,-7.16,-7.16,-7.16,7.16,7.16,7.16,4,114,30,2458,0.5808655999717303,130,131,2,RL,1,F,19,R,2025-06-17_13h07.58.739,RewSL_RL_EEG,
ping,high,midRight,DOWN,red,r,lowA,Stimuli\red_bar1.png,Stimuli\red_bar1.png,Stimuli\ping.png,midLeft,lowB,downRight,lowC,downLeft,upLeft,upRight,2,rew_high,m,,,,,0,31,31,6,,,0.4,0.6,exp,m,1,10.14,0,-10.14,0,7.16,-7.16,-7.16,-7.16,-7.16,7.16,7.16,7.16,4,224,31,2558,0.6339357999968342,131,132,2,RL,1,F,19,R,2025-06-17_13h07.58.739,RewSL_RL_EEG,
ping,lowC,downLeft,UP,red,r,lowA,Stimuli\red_bar1.png,Stimuli\red_bar1.png,Stimuli\ping.png,midLeft,lowB,downRight,high,midRight,upLeft,upRight,2,rew_low,z,,,,,0,32,32,84,,,0.6,0.7,exp,z,1,-7.16,-7.16,-10.14,0,7.16,-7.16,10.14,0,-7.16,7.16,7.16,7.16,4,134,30,2559,0.8307395000010729,132,133,2,RL,1,F,19,R,2025-06-17_13h07.58.739,RewSL_RL_EEG,
ping,lowB,downRight,DOWN,red,r,lowA,Stimuli\red_bar1.png,Stimuli\red_bar1.png,Stimuli\ping.png,midLeft,high,midRight,lowC,downLeft,upLeft,upRight,2,rew_low,m,,,,,0,33,33,54,,,0.4,0.7,exp,m,1,7.16,-7.16,-10.14,0,10.14,0,-7.16,-7.16,-7.16,7.16,7.16,7.16,4,244,30,2560,0.8131174999871291,133,134,2,RL,1,F,19,R,2025-06-17_13h07.58.739,RewSL_RL_EEG,
ping,high,midRight,UP,red,l,lowA,Stimuli\red_bar1.png,Stimuli\red_bar1.png,Stimuli\ping.png,midLeft,lowB,downRight,lowC,downLeft,upLeft,upRight,2,rew_high,z,,,,,0,34,34,8,,,0.5,0.7,exp,z,1,10.14,0,-10.14,0,7.16,-7.16,-7.16,-7.16,-7.16,7.16,7.16,7.16,4,124,31,2660,0.86456369998632,134,135,2,RL,1,F,19,R,2025-06-17_13h07.58.739,RewSL_RL_EEG,
ping,high,midRight,UP,green,l,lowA,Stimuli\green_bar1.png,Stimuli\green_bar1.png,Stimuli\ping.png,midLeft,lowB,downRight,lowC,downLeft,upLeft,upRight,2,rew_high,z,,,,,0,35,35,1,,,0.5,0.6,exp,z,1,10.14,0,-10.14,0,7.16,-7.16,-7.16,-7.16,-7.16,7.16,7.16,7.16,4,124,31,2760,0.8466947000124492,135,136,2,RL,1,F,19,R,2025-06-17_13h07.58.739,RewSL_RL_EEG,
ping,lowB,downRight,UP,red,l,lowA,Stimuli\red_bar1.png,Stimuli\red_bar1.png,Stimuli\ping.png,midLeft,high,midRight,lowC,downLeft,upLeft,upRight,2,rew_low,z,,,,,0,36,36,72,,,0.4,0.7,exp,None,0,7.16,-7.16,-10.14,0,10.14,0,-7.16,-7.16,-7.16,7.16,7.16,7.16,4,144,30,2760,,136,137,2,RL,1,F,19,R,2025-06-17_13h07.58.739,RewSL_RL_EEG,
ping,lowC,downLeft,UP,green,r,lowA,Stimuli\green_bar1.png,Stimuli\green_bar1.png,Stimuli\ping.png,midLeft,lowB,downRight,high,midRight,upLeft,upRight,2,rew_low,z,,,,,0,37,37,77,,,0.5,0.8,exp,m,0,-7.16,-7.16,-10.14,0,7.16,-7.16,10.14,0,-7.16,7.16,7.16,7.16,4,134,30,2760,1.11719889997039,137,138,2,RL,1,F,19,R,2025-06-17_13h07.58.739,RewSL_RL_EEG,
ping,lowA,midLeft,DOWN,green,r,high,Stimuli\green_bar1.png,Stimuli\green_bar1.png,Stimuli\ping.png,midRight,lowB,downRight,lowC,downLeft,upLeft,upRight,2,rew_low,m,,,,,0,38,38,47,,,0.6,0.7,exp,z,0,-10.14,0,10.14,0,7.16,-7.16,-7.16,-7.16,-7.16,7.16,7.16,7.16,4,214,30,2760,1.0128826000145636,138,139,2,RL,1,F,19,R,2025-06-17_13h07.58.739,RewSL_RL_EEG,
ping,lowB,downRight,DOWN,red,r,lowA,Stimuli\red_bar1.png,Stimuli\red_bar1.png,Stimuli\ping.png,midLeft,high,midRight,lowC,downLeft,upLeft,upRight,2,rew_low,m,,,,,0,39,39,70,,,0.5,0.7,exp,None,0,7.16,-7.16,-10.14,0,10.14,0,-7.16,-7.16,-7.16,7.16,7.16,7.16,4,244,30,2760,,139,140,2,RL,1,F,19,R,2025-06-17_13h07.58.739,RewSL_RL_EEG,
ping,high,midRight,DOWN,red,l,lowA,Stimuli\red_bar1.png,Stimuli\red_bar1.png,Stimuli\ping.png,midLeft,lowB,downRight,lowC,downLeft,upLeft,upRight,2,rew_high,m,,,,,0,40,40,18,,,0.5,0.7,exp,None,0,10.14,0,-10.14,0,7.16,-7.16,-7.16,-7.16,-7.16,7.16,7.16,7.16,4,224,31,2760,,140,141,2,RL,1,F,19,R,2025-06-17_13h07.58.739,RewSL_RL_EEG,
ping,lowB,downRight,UP,red,l,lowA,Stimuli\red_bar1.png,Stimuli\red_bar1.png,Stimuli\ping.png,midLeft,high,midRight,lowC,downLeft,upLeft,upRight,2,rew_low,z,,,,,0,41,41,56,,,0.4,0.7,exp,None,0,7.16,-7.16,-10.14,0,10.14,0,-7.16,-7.16,-7.16,7.16,7.16,7.16,4,144,30,2760,,141,142,2,RL,1,F,19,R,2025-06-17_13h07.58.739,RewSL_RL_EEG,
ping,lowA,midLeft,DOWN,green,l,high,Stimuli\green_bar1.png,Stimuli\green_bar1.png,Stimuli\ping.png,midRight,lowB,downRight,lowC,downLeft,upLeft,upRight,2,rew_low,m,,,,,0,42,42,43,,,0.4,0.7,exp,m,1,-10.14,0,10.14,0,7.16,-7.16,-7.16,-7.16,-7.16,7.16,7.16,7.16,4,214,30,2761,0.6423098999657668,142,143,2,RL,1,F,19,R,2025-06-17_13h07.58.739,RewSL_RL_EEG,
ping,lowB,downRight,UP,red,l,lowA,Stimuli\red_bar1.png,Stimuli\red_bar1.png,Stimuli\ping.png,midLeft,high,midRight,lowC,downLeft,upLeft,upRight,2,rew_low,z,,,,,0,43,43,64,,,0.5,0.8,exp,z,1,7.16,-7.16,-10.14,0,10.14,0,-7.16,-7.16,-7.16,7.16,7.16,7.16,4,144,30,2762,1.095966499997303,143,144,2,RL,1,F,19,R,2025-06-17_13h07.58.739,RewSL_RL_EEG,
ping,lowC,downLeft,UP,red,l,lowA,Stimuli\red_bar1.png,Stimuli\red_bar1.png,Stimuli\ping.png,midLeft,lowB,downRight,high,midRight,upLeft,upRight,2,rew_low,z,,,,,0,44,44,96,,,0.6,0.6,exp,z,1,-7.16,-7.16,-10.14,0,7.16,-7.16,10.14,0,-7.16,7.16,7.16,7.16,4,134,30,2763,0.9102814000216313,144,145,2,RL,1,F,19,R,2025-06-17_13h07.58.739,RewSL_RL_EEG,
ping,lowA,midLeft,UP,green,l,high,Stimuli\green_bar1.png,Stimuli\green_bar1.png,Stimuli\ping.png,midRight,lowB,downRight,lowC,downLeft,upLeft,upRight,2,rew_low,z,,,,,0,45,45,41,,,0.4,0.7,exp,z,1,-10.14,0,10.14,0,7.16,-7.16,-7.16,-7.16,-7.16,7.16,7.16,7.16,4,114,30,2764,0.871324600011576,145,146,2,RL,1,F,19,R,2025-06-17_13h07.58.739,RewSL_RL_EEG,
ping,lowB,downRight,UP,green,l,lowA,Stimuli\green_bar1.png,Stimuli\green_bar1.png,Stimuli\ping.png,midLeft,high,midRight,lowC,downLeft,upLeft,upRight,2,rew_low,z,,,,,0,46,46,57,,,0.6,0.6,exp,None,0,7.16,-7.16,-10.14,0,10.14,0,-7.16,-7.16,-7.16,7.16,7.16,7.16,4,144,30,2764,,146,147,2,RL,1,F,19,R,2025-06-17_13h07.58.739,RewSL_RL_EEG,
ping,lowB,downRight,DOWN,green,r,lowA,Stimuli\green_bar1.png,Stimuli\green_bar1.png,Stimuli\ping.png,midLeft,high,midRight,lowC,downLeft,upLeft,upRight,2,rew_low,m,,,,,0,47,47,63,,,0.5,0.7,exp,None,0,7.16,-7.16,-10.14,0,10.14,0,-7.16,-7.16,-7.16,7.16,7.16,7.16,4,244,30,2764,,147,148,2,RL,1,F,19,R,2025-06-17_13h07.58.739,RewSL_RL_EEG,
ping,high,midRight,UP,green,l,lowA,Stimuli\green_bar1.png,Stimuli\green_bar1.png,Stimuli\ping.png,midLeft,lowB,downRight,lowC,downLeft,upLeft,upRight,2,rew_high,z,,,,,0,48,48,9,,,0.6,0.7,exp,None,0,10.14,0,-10.14,0,7.16,-7.16,-7.16,-7.16,-7.16,7.16,7.16,7.16,4,124,31,2764,,148,149,2,RL,1,F,19,R,2025-06-17_13h07.58.739,RewSL_RL_EEG,
ping,lowA,midLeft,UP,green,l,high,Stimuli\green_bar1.png,Stimuli\green_bar1.png,Stimuli\ping.png,midRight,lowB,downRight,lowC,downLeft,upLeft,upRight,2,rew_low,z,,,,,0,49,49,25,,,0.6,0.8,exp,z,1,-10.14,0,10.14,0,7.16,-7.16,-7.16,-7.16,-7.16,7.16,7.16,7.16,4,114,30,2765,0.8504150999942794,149,150,2,RL,1,F,19,R,2025-06-17_13h07.58.739,RewSL_RL_EEG,
ping,high,midRight,DOWN,red,r,lowA,Stimuli\red_bar1.png,Stimuli\red_bar1.png,Stimuli\ping.png,midLeft,lowB,downRight,lowC,downLeft,upLeft,upRight,2,rew_high,m,,,,,0,50,50,22,,,0.5,0.7,exp,m,1,10.14,0,-10.14,0,7.16,-7.16,-7.16,-7.16,-7.16,7.16,7.16,7.16,4,224,31,2865,0.7496668000239879,150,151,2,RL,1,F,19,R,2025-06-17_13h07.58.739,RewSL_RL_EEG,
ping,lowA,midLeft,UP,red,r,high,Stimuli\red_bar1.png,Stimuli\red_bar1.png,Stimuli\ping.png,midRight,lowB,downRight,lowC,downLeft,upLeft,upRight,2,rew_low,z,,,,,0,51,51,36,,,0.4,0.7,exp,z,1,-10.14,0,10.14,0,7.16,-7.16,-7.16,-7.16,-7.16,7.16,7.16,7.16,4,114,30,2866,0.5891954000107944,151,152,2,RL,1,F,19,R,2025-06-17_13h07.58.739,RewSL_RL_EEG,
ping,lowB,downRight,DOWN,red,l,lowA,Stimuli\red_bar1.png,Stimuli\red_bar1.png,Stimuli\ping.png,midLeft,high,midRight,lowC,downLeft,upLeft,upRight,2,rew_low,m,,,,,0,52,52,74,,,0.4,0.7,exp,m,1,7.16,-7.16,-10.14,0,10.14,0,-7.16,-7.16,-7.16,7.16,7.16,7.16,4,244,30,2867,0.8554948000237346,152,153,2,RL,1,F,19,R,2025-06-17_13h07.58.739,RewSL_RL_EEG,
ping,lowB,downRight,DOWN,red,l,lowA,Stimuli\red_bar1.png,Stimuli\red_bar1.png,Stimuli\ping.png,midLeft,high,midRight,lowC,downLeft,upLeft,upRight,2,rew_low,m,,,,,0,53,53,50,,,0.4,0.7,exp,m,1,7.16,-7.16,-10.14,0,10.14,0,-7.16,-7.16,-7.16,7.16,7.16,7.16,4,244,30,2868,0.6225980999879539,153,154,2,RL,1,F,19,R,2025-06-17_13h07.58.739,RewSL_RL_EEG,
ping,high,midRight,UP,red,r,lowA,Stimuli\red_bar1.png,Stimuli\red_bar1.png,Stimuli\ping.png,midLeft,lowB,downRight,lowC,downLeft,upLeft,upRight,2,rew_high,z,,,,,0,54,54,12,,,0.4,0.7,exp,z,1,10.14,0,-10.14,0,7.16,-7.16,-7.16,-7.16,-7.16,7.16,7.16,7.16,4,124,31,2968,0.73098559997743,154,155,2,RL,1,F,19,R,2025-06-17_13h07.58.739,RewSL_RL_EEG,
ping,lowA,midLeft,UP,red,l,high,Stimuli\red_bar1.png,Stimuli\red_bar1.png,Stimuli\ping.png,midRight,lowB,downRight,lowC,downLeft,upLeft,upRight,2,rew_low,z,,,,,0,55,55,48,,,0.4,0.7,exp,z,1,-10.14,0,10.14,0,7.16,-7.16,-7.16,-7.16,-7.16,7.16,7.16,7.16,4,114,30,2969,0.9796892999438569,155,156,2,RL,1,F,19,R,2025-06-17_13h07.58.739,RewSL_RL_EEG,
ping,lowA,midLeft,DOWN,red,r,high,Stimuli\red_bar1.png,Stimuli\red_bar1.png,Stimuli\ping.png,midRight,lowB,downRight,lowC,downLeft,upLeft,upRight,2,rew_low,m,,,,,0,56,56,30,,,0.4,0.7,exp,m,1,-10.14,0,10.14,0,7.16,-7.16,-7.16,-7.16,-7.16,7.16,7.16,7.16,4,214,30,2970,0.6339093999704346,156,157,2,RL,1,F,19,R,2025-06-17_13h07.58.739,RewSL_RL_EEG,
ping,high,midRight,UP,red,r,lowA,Stimuli\red_bar1.png,Stimuli\red_bar1.png,Stimuli\ping.png,midLeft,lowB,downRight,lowC,downLeft,upLeft,upRight,2,rew_high,z,,,,,0,57,57,20,,,0.6,0.7,exp,z,1,10.14,0,-10.14,0,7.16,-7.16,-7.16,-7.16,-7.16,7.16,7.16,7.16,4,124,31,3070,0.8045547000365332,157,158,2,RL,1,F,19,R,2025-06-17_13h07.58.739,RewSL_RL_EEG,
ping,high,midRight,UP,red,l,lowA,Stimuli\red_bar1.png,Stimuli\red_bar1.png,Stimuli\ping.png,midLeft,lowB,downRight,lowC,downLeft,upLeft,upRight,2,rew_high,z,,,,,0,58,58,16,,,0.6,0.8,exp,z,1,10.14,0,-10.14,0,7.16,-7.16,-7.16,-7.16,-7.16,7.16,7.16,7.16,4,124,31,3170,0.751483800006099,158,159,2,RL,1,F,19,R,2025-06-17_13h07.58.739,RewSL_RL_EEG,
ping,lowC,downLeft,DOWN,red,l,lowA,Stimuli\red_bar1.png,Stimuli\red_bar1.png,Stimuli\ping.png,midLeft,lowB,downRight,high,midRight,upLeft,upRight,2,rew_low,m,,,,,0,59,59,90,,,0.5,0.7,exp,None,0,-7.16,-7.16,-10.14,0,7.16,-7.16,10.14,0,-7.16,7.16,7.16,7.16,4,234,30,3170,,159,160,2,RL,1,F,19,R,2025-06-17_13h07.58.739,RewSL_RL_EEG,
ping,lowA,midLeft,UP,red,l,high,Stimuli\red_bar1.png,Stimuli\red_bar1.png,Stimuli\ping.png,midRight,lowB,downRight,lowC,downLeft,upLeft,upRight,2,rew_low,z,,,,,0,60,60,32,,,0.5,0.7,exp,z,1,-10.14,0,10.14,0,7.16,-7.16,-7.16,-7.16,-7.16,7.16,7.16,7.16,4,114,30,3171,0.6976008000201546,160,161,2,RL,1,F,19,R,2025-06-17_13h07.58.739,RewSL_RL_EEG,
ping,high,midRight,DOWN,green,r,lowA,Stimuli\green_bar1.png,Stimuli\green_bar1.png,Stimuli\ping.png,midLeft,lowB,downRight,lowC,downLeft,upLeft,upRight,2,rew_high,m,,,,,0,61,61,7,,,0.6,0.8,exp,m,1,10.14,0,-10.14,0,7.16,-7.16,-7.16,-7.16,-7.16,7.16,7.16,7.16,4,224,31,3271,0.7557985000312328,161,162,2,RL,1,F,19,R,2025-06-17_13h07.58.739,RewSL_RL_EEG,
ping,lowA,midLeft,UP,red,l,high,Stimuli\red_bar1.png,Stimuli\red_bar1.png,Stimuli\ping.png,midRight,lowB,downRight,lowC,downLeft,upLeft,upRight,2,rew_low,z,,,,,0,62,62,40,,,0.6,0.7,exp,z,1,-10.14,0,10.14,0,7.16,-7.16,-7.16,-7.16,-7.16,7.16,7.16,7.16,4,114,30,3272,0.9459712000098079,162,163,2,RL,1,F,19,R,2025-06-17_13h07.58.739,RewSL_RL_EEG,
ping,lowA,midLeft,DOWN,red,r,high,Stimuli\red_bar1.png,Stimuli\red_bar1.png,Stimuli\ping.png,midRight,lowB,downRight,lowC,downLeft,upLeft,upRight,2,rew_low,m,,,,,0,63,63,38,,,0.5,0.6,exp,m,1,-10.14,0,10.14,0,7.16,-7.16,-7.16,-7.16,-7.16,7.16,7.16,7.16,4,214,30,3273,1.0754376000259072,163,164,2,RL,1,F,19,R,2025-06-17_13h07.58.739,RewSL_RL_EEG,
ping,lowA,midLeft,DOWN,red,l,high,Stimuli\red_bar1.png,Stimuli\red_bar1.png,Stimuli\ping.png,midRight,lowB,downRight,lowC,downLeft,upLeft,upRight,2,rew_low,m,,,,,0,64,64,42,,,0.5,0.6,exp,z,0,-10.14,0,10.14,0,7.16,-7.16,-7.16,-7.16,-7.16,7.16,7.16,7.16,4,214,30,3273,0.9889330999576487,164,165,2,RL,1,F,19,R,2025-06-17_13h07.58.739,RewSL_RL_EEG,
ping,lowB,downRight,DOWN,green,r,lowA,Stimuli\green_bar1.png,Stimuli\green_bar1.png,Stimuli\ping.png,midLeft,high,midRight,lowC,downLeft,upLeft,upRight,2,rew_low,m,,,,,0,65,65,55,,,0.5,0.8,exp,m,1,7.16,-7.16,-10.14,0,10.14,0,-7.16,-7.16,-7.16,7.16,7.16,7.16,4,244,30,3274,1.170845599961467,165,166,2,RL,1,F,19,R,2025-06-17_13h07.58.739,RewSL_RL_EEG,
ping,lowA,midLeft,UP,green,r,high,Stimuli\green_bar1.png,Stimuli\green_bar1.png,Stimuli\ping.png,midRight,lowB,downRight,lowC,downLeft,upLeft,upRight,2,rew_low,z,,,,,0,66,66,29,,,0.5,0.7,exp,z,1,-10.14,0,10.14,0,7.16,-7.16,-7.16,-7.16,-7.16,7.16,7.16,7.16,4,114,30,3275,0.6381623999914154,166,167,2,RL,1,F,19,R,2025-06-17_13h07.58.739,RewSL_RL_EEG,
ping,high,midRight,UP,red,l,lowA,Stimuli\red_bar1.png,Stimuli\red_bar1.png,Stimuli\ping.png,midLeft,lowB,downRight,lowC,downLeft,upLeft,upRight,2,rew_high,z,,,,,0,67,67,0,,,0.5,0.8,exp,z,1,10.14,0,-10.14,0,7.16,-7.16,-7.16,-7.16,-7.16,7.16,7.16,7.16,4,124,31,3375,1.2214491000049748,167,168,2,RL,1,F,19,R,2025-06-17_13h07.58.739,RewSL_RL_EEG,
ping,lowB,downRight,DOWN,red,l,lowA,Stimuli\red_bar1.png,Stimuli\red_bar1.png,Stimuli\ping.png,midLeft,high,midRight,lowC,downLeft,upLeft,upRight,2,rew_low,m,,,,,0,68,68,66,,,0.4,0.7,exp,m,1,7.16,-7.16,-10.14,0,10.14,0,-7.16,-7.16,-7.16,7.16,7.16,7.16,4,244,30,3376,0.8003886000369675,168,169,2,RL,1,F,19,R,2025-06-17_13h07.58.739,RewSL_RL_EEG,
ping,lowB,downRight,UP,green,l,lowA,Stimuli\green_bar1.png,Stimuli\green_bar1.png,Stimuli\ping.png,midLeft,high,midRight,lowC,downLeft,upLeft,upRight,2,rew_low,z,,,,,0,69,69,73,,,0.4,0.7,exp,z,1,7.16,-7.16,-10.14,0,10.14,0,-7.16,-7.16,-7.16,7.16,7.16,7.16,4,144,30,3377,0.7669150999863632,169,170,2,RL,1,F,19,R,2025-06-17_13h07.58.739,RewSL_RL_EEG,
ping,lowA,midLeft,DOWN,red,l,high,Stimuli\red_bar1.png,Stimuli\red_bar1.png,Stimuli\ping.png,midRight,lowB,downRight,lowC,downLeft,upLeft,upRight,2,rew_low,m,,,,,0,70,70,34,,,0.6,0.7,exp,None,0,-10.14,0,10.14,0,7.16,-7.16,-7.16,-7.16,-7.16,7.16,7.16,7.16,4,214,30,3377,,170,171,2,RL,1,F,19,R,2025-06-17_13h07.58.739,RewSL_RL_EEG,
ping,high,midRight,UP,red,l,lowA,Stimuli\red_bar1.png,Stimuli\red_bar1.png,Stimuli\ping.png,midLeft,lowB,downRight,lowC,downLeft,upLeft,upRight,2,rew_high,z,,,,,0,71,71,24,,,0.5,0.8,exp,z,1,10.14,0,-10.14,0,7.16,-7.16,-7.16,-7.16,-7.16,7.16,7.16,7.16,4,124,31,3477,0.9963710000156425,171,172,2,RL,1,F,19,R,2025-06-17_13h07.58.739,RewSL_RL_EEG,
ping,lowC,downLeft,DOWN,red,r,lowA,Stimuli\red_bar1.png,Stimuli\red_bar1.png,Stimuli\ping.png,midLeft,lowB,downRight,high,midRight,upLeft,upRight,2,rew_low,m,,,,,0,72,72,94,,,0.5,0.8,exp,None,0,-7.16,-7.16,-10.14,0,7.16,-7.16,10.14,0,-7.16,7.16,7.16,7.16,4,234,30,3477,,172,173,2,RL,1,F,19,R,2025-06-17_13h07.58.739,RewSL_RL_EEG,
ping,lowC,downLeft,DOWN,green,r,lowA,Stimuli\green_bar1.png,Stimuli\green_bar1.png,Stimuli\ping.png,midLeft,lowB,downRight,high,midRight,upLeft,upRight,2,rew_low,m,,,,,0,73,73,99,,,0.5,0.7,exp,m,1,-7.16,-7.16,-10.14,0,7.16,-7.16,10.14,0,-7.16,7.16,7.16,7.16,4,234,30,3478,1.1625928999856114,173,174,2,RL,1,F,19,R,2025-06-17_13h07.58.739,RewSL_RL_EEG,
ping,lowA,midLeft,UP,green,l,high,Stimuli\green_bar1.png,Stimuli\green_bar1.png,Stimuli\ping.png,midRight,lowB,downRight,lowC,downLeft,upLeft,upRight,2,rew_low,z,,,,,0,74,74,49,,,0.5,0.8,exp,None,0,-10.14,0,10.14,0,7.16,-7.16,-7.16,-7.16,-7.16,7.16,7.16,7.16,4,114,30,3478,,174,175,2,RL,1,F,19,R,2025-06-17_13h07.58.739,RewSL_RL_EEG,
ping,lowB,downRight,UP,green,l,lowA,Stimuli\green_bar1.png,Stimuli\green_bar1.png,Stimuli\ping.png,midLeft,high,midRight,lowC,downLeft,upLeft,upRight,2,rew_low,z,,,,,0,75,75,65,,,0.6,0.8,exp,None,0,7.16,-7.16,-10.14,0,10.14,0,-7.16,-7.16,-7.16,7.16,7.16,7.16,4,144,30,3478,,175,176,2,RL,1,F,19,R,2025-06-17_13h07.58.739,RewSL_RL_EEG,
ping,lowA,midLeft,DOWN,red,r,high,Stimuli\red_bar1.png,Stimuli\red_bar1.png,Stimuli\ping.png,midRight,lowB,downRight,lowC,downLeft,upLeft,upRight,2,rew_low,m,,,,,0,76,76,46,,,0.6,0.6,exp,m,1,-10.14,0,10.14,0,7.16,-7.16,-7.16,-7.16,-7.16,7.16,7.16,7.16,4,214,30,3479,0.7972605999675579,176,177,2,RL,1,F,19,R,2025-06-17_13h07.58.739,RewSL_RL_EEG,
ping,lowC,downLeft,DOWN,red,r,lowA,Stimuli\red_bar1.png,Stimuli\red_bar1.png,Stimuli\ping.png,midLeft,lowB,downRight,high,midRight,upLeft,upRight,2,rew_low,m,,,,,0,77,77,86,,,0.6,0.7,exp,m,1,-7.16,-7.16,-10.14,0,7.16,-7.16,10.14,0,-7.16,7.16,7.16,7.16,4,234,30,3480,0.7838463000371121,177,178,2,RL,1,F,19,R,2025-06-17_13h07.58.739,RewSL_RL_EEG,
ping,lowC,downLeft,DOWN,green,l,lowA,Stimuli\green_bar1.png,Stimuli\green_bar1.png,Stimuli\ping.png,midLeft,lowB,downRight,high,midRight,upLeft,upRight,2,rew_low,m,,,,,0,78,78,91,,,0.5,0.7,exp,m,1,-7.16,-7.16,-10.14,0,7.16,-7.16,10.14,0,-7.16,7.16,7.16,7.16,4,234,30,3481,0.6004744999809191,178,179,2,RL,1,F,19,R,2025-06-17_13h07.58.739,RewSL_RL_EEG,
ping,high,midRight,UP,red,r,lowA,Stimuli\red_bar1.png,Stimuli\red_bar1.png,Stimuli\ping.png,midLeft,lowB,downRight,lowC,downLeft,upLeft,upRight,2,rew_high,z,,,,,0,79,79,4,,,0.5,0.6,exp,z,1,10.14,0,-10.14,0,7.16,-7.16,-7.16,-7.16,-7.16,7.16,7.16,7.16,4,124,31,3581,1.2171733000432141,179,180,2,RL,1,F,19,R,2025-06-17_13h07.58.739,RewSL_RL_EEG,
ping,lowC,downLeft,DOWN,green,l,lowA,Stimuli\green_bar1.png,Stimuli\green_bar1.png,Stimuli\ping.png,midLeft,lowB,downRight,high,midRight,upLeft,upRight,2,rew_low,m,,,,,0,80,80,75,,,0.6,0.8,exp,m,1,-7.16,-7.16,-10.14,0,7.16,-7.16,10.14,0,-7.16,7.16,7.16,7.16,4,234,30,3582,1.2017170000472106,180,181,2,RL,1,F,19,R,2025-06-17_13h07.58.739,RewSL_RL_EEG,
ping,lowC,downLeft,DOWN,green,r,lowA,Stimuli\green_bar1.png,Stimuli\green_bar1.png,Stimuli\ping.png,midLeft,lowB,downRight,high,midRight,upLeft,upRight,2,rew_low,m,,,,,0,81,81,95,,,0.5,0.7,exp,m,1,-7.16,-7.16,-10.14,0,7.16,-7.16,10.14,0,-7.16,7.16,7.16,7.16,4,234,30,3583,0.7421871999977157,181,182,2,RL,1,F,19,R,2025-06-17_13h07.58.739,RewSL_RL_EEG,
ping,lowC,downLeft,UP,green,r,lowA,Stimuli\green_bar1.png,Stimuli\green_bar1.png,Stimuli\ping.png,midLeft,lowB,downRight,high,midRight,upLeft,upRight,2,rew_low,z,,,,,0,82,82,93,,,0.5,0.6,exp,m,0,-7.16,-7.16,-10.14,0,7.16,-7.16,10.14,0,-7.16,7.16,7.16,7.16,4,134,30,3583,0.996705400000792,182,183,2,RL,1,F,19,R,2025-06-17_13h07.58.739,RewSL_RL_EEG,
ping,high,midRight,DOWN,green,l,lowA,Stimuli\green_bar1.png,Stimuli\green_bar1.png,Stimuli\ping.png,midLeft,lowB,downRight,lowC,downLeft,upLeft,upRight,2,rew_high,m,,,,,0,83,83,19,,,0.5,0.7,exp,m,1,10.14,0,-10.14,0,7.16,-7.16,-7.16,-7.16,-7.16,7.16,7.16,7.16,4,224,31,3683,0.7673816999886185,183,184,2,RL,1,F,19,R,2025-06-17_13h07.58.739,RewSL_RL_EEG,
ping,lowC,downLeft,UP,red,l,lowA,Stimuli\red_bar1.png,Stimuli\red_bar1.png,Stimuli\ping.png,midLeft,lowB,downRight,high,midRight,upLeft,upRight,2,rew_low,z,,,,,0,84,84,80,,,0.4,0.7,exp,z,1,-7.16,-7.16,-10.14,0,7.16,-7.16,10.14,0,-7.16,7.16,7.16,7.16,4,134,30,3684,1.0921471000183374,184,185,2,RL,1,F,19,R,2025-06-17_13h07.58.739,RewSL_RL_EEG,
ping,lowC,downLeft,UP,green,l,lowA,Stimuli\green_bar1.png,Stimuli\green_bar1.png,Stimuli\ping.png,midLeft,lowB,downRight,high,midRight,upLeft,upRight,2,rew_low,z,,,,,0,85,85,97,,,0.5,0.7,exp,z,1,-7.16,-7.16,-10.14,0,7.16,-7.16,10.14,0,-7.16,7.16,7.16,7.16,4,134,30,3685,0.6639940000022762,185,186,2,RL,1,F,19,R,2025-06-17_13h07.58.739,RewSL_RL_EEG,
ping,lowC,downLeft,UP,red,l,lowA,Stimuli\red_bar1.png,Stimuli\red_bar1.png,Stimuli\ping.png,midLeft,lowB,downRight,high,midRight,upLeft,upRight,2,rew_low,z,,,,,0,86,86,88,,,0.4,0.8,exp,z,1,-7.16,-7.16,-10.14,0,7.16,-7.16,10.14,0,-7.16,7.16,7.16,7.16,4,134,30,3686,0.5755124000133947,186,187,2,RL,1,F,19,R,2025-06-17_13h07.58.739,RewSL_RL_EEG,
ping,high,midRight,UP,green,l,lowA,Stimuli\green_bar1.png,Stimuli\green_bar1.png,Stimuli\ping.png,midLeft,lowB,downRight,lowC,downLeft,upLeft,upRight,2,rew_high,z,,,,,0,87,87,17,,,0.5,0.7,exp,z,1,10.14,0,-10.14,0,7.16,-7.16,-7.16,-7.16,-7.16,7.16,7.16,7.16,4,124,31,3786,1.0165359000093304,187,188,2,RL,1,F,19,R,2025-06-17_13h07.58.739,RewSL_RL_EEG,
ping,lowC,downLeft,DOWN,red,r,lowA,Stimuli\red_bar1.png,Stimuli\red_bar1.png,Stimuli\ping.png,midLeft,lowB,downRight,high,midRight,upLeft,upRight,2,rew_low,m,,,,,0,88,88,98,,,0.4,0.7,exp,m,1,-7.16,-7.16,-10.14,0,7.16,-7.16,10.14,0,-7.16,7.16,7.16,7.16,4,234,30,3787,0.8140056999982335,188,189,2,RL,1,F,19,R,2025-06-17_13h07.58.739,RewSL_RL_EEG,
ping,high,midRight,DOWN,green,l,lowA,Stimuli\green_bar1.png,Stimuli\green_bar1.png,Stimuli\ping.png,midLeft,lowB,downRight,lowC,downLeft,upLeft,upRight,2,rew_high,m,,,,,0,89,89,3,,,0.5,0.6,exp,m,1,10.14,0,-10.14,0,7.16,-7.16,-7.16,-7.16,-7.16,7.16,7.16,7.16,4,224,31,3887,0.7264576000161469,189,190,2,RL,1,F,19,R,2025-06-17_13h07.58.739,RewSL_RL_EEG,
ping,lowB,downRight,DOWN,green,l,lowA,Stimuli\green_bar1.png,Stimuli\green_bar1.png,Stimuli\ping.png,midLeft,high,midRight,lowC,downLeft,upLeft,upRight,2,rew_low,m,,,,,0,90,90,51,,,0.4,0.8,exp,m,1,7.16,-7.16,-10.14,0,10.14,0,-7.16,-7.16,-7.16,7.16,7.16,7.16,4,244,30,3888,1.2747546000173315,190,191,2,RL,1,F,19,R,2025-06-17_13h07.58.739,RewSL_RL_EEG,
ping,lowA,midLeft,UP,green,r,high,Stimuli\green_bar1.png,Stimuli\green_bar1.png,Stimuli\ping.png,midRight,lowB,downRight,lowC,downLeft,upLeft,upRight,2,rew_low,z,,,,,0,91,91,37,,,0.5,0.6,exp,z,1,-10.14,0,10.14,0,7.16,-7.16,-7.16,-7.16,-7.16,7.16,7.16,7.16,4,114,30,3889,0.9171585000003688,191,192,2,RL,1,F,19,R,2025-06-17_13h07.58.739,RewSL_RL_EEG,
ping,lowC,downLeft,UP,green,r,lowA,Stimuli\green_bar1.png,Stimuli\green_bar1.png,Stimuli\ping.png,midLeft,lowB,downRight,high,midRight,upLeft,upRight,2,rew_low,z,,,,,0,92,92,85,,,0.5,0.7,exp,z,1,-7.16,-7.16,-10.14,0,7.16,-7.16,10.14,0,-7.16,7.16,7.16,7.16,4,134,30,3890,0.7313808999606408,192,193,2,RL,1,F,19,R,2025-06-17_13h07.58.739,RewSL_RL_EEG,
ping,lowB,downRight,UP,green,r,lowA,Stimuli\green_bar1.png,Stimuli\green_bar1.png,Stimuli\ping.png,midLeft,high,midRight,lowC,downLeft,upLeft,upRight,2,rew_low,z,,,,,0,93,93,53,,,0.6,0.7,exp,None,0,7.16,-7.16,-10.14,0,10.14,0,-7.16,-7.16,-7.16,7.16,7.16,7.16,4,144,30,3890,,193,194,2,RL,1,F,19,R,2025-06-17_13h07.58.739,RewSL_RL_EEG,
ping,high,midRight,UP,green,r,lowA,Stimuli\green_bar1.png,Stimuli\green_bar1.png,Stimuli\ping.png,midLeft,lowB,downRight,lowC,downLeft,upLeft,upRight,2,rew_high,z,,,,,0,94,94,5,,,0.5,0.6,exp,None,0,10.14,0,-10.14,0,7.16,-7.16,-7.16,-7.16,-7.16,7.16,7.16,7.16,4,124,31,3890,,194,195,2,RL,1,F,19,R,2025-06-17_13h07.58.739,RewSL_RL_EEG,
ping,high,midRight,DOWN,green,r,lowA,Stimuli\green_bar1.png,Stimuli\green_bar1.png,Stimuli\ping.png,midLeft,lowB,downRight,lowC,downLeft,upLeft,upRight,2,rew_high,m,,,,,0,95,95,23,,,0.5,0.6,exp,m,1,10.14,0,-10.14,0,7.16,-7.16,-7.16,-7.16,-7.16,7.16,7.16,7.16,4,224,31,3990,0.9433328000013717,195,196,2,RL,1,F,19,R,2025-06-17_13h07.58.739,RewSL_RL_EEG,
ping,lowC,downLeft,DOWN,green,r,lowA,Stimuli\green_bar1.png,Stimuli\green_bar1.png,Stimuli\ping.png,midLeft,lowB,downRight,high,midRight,upLeft,upRight,2,rew_low,m,,,,,0,96,96,79,,,0.5,0.6,exp,None,0,-7.16,-7.16,-10.14,0,7.16,-7.16,10.14,0,-7.16,7.16,7.16,7.16,4,234,30,3990,,196,197,2,RL,1,F,19,R,2025-06-17_13h07.58.739,RewSL_RL_EEG,
ping,lowC,downLeft,UP,red,r,lowA,Stimuli\red_bar1.png,Stimuli\red_bar1.png,Stimuli\ping.png,midLeft,lowB,downRight,high,midRight,upLeft,upRight,2,rew_low,z,,,,,0,97,97,76,,,0.4,0.7,exp,z,1,-7.16,-7.16,-10.14,0,7.16,-7.16,10.14,0,-7.16,7.16,7.16,7.16,4,134,30,3991,0.8218645000015385,197,198,2,RL,1,F,19,R,2025-06-17_13h07.58.739,RewSL_RL_EEG,
ping,lowB,downRight,DOWN,green,l,lowA,Stimuli\green_bar1.png,Stimuli\green_bar1.png,Stimuli\ping.png,midLeft,high,midRight,lowC,downLeft,upLeft,upRight,2,rew_low,m,,,,,0,98,98,59,,,0.5,0.6,exp,m,1,7.16,-7.16,-10.14,0,10.14,0,-7.16,-7.16,-7.16,7.16,7.16,7.16,4,244,30,3992,1.0221504000364803,198,199,2,RL,1,F,19,R,2025-06-17_13h07.58.739,RewSL_RL_EEG,
ping,lowC,downLeft,DOWN,green,r,lowA,Stimuli\green_bar1.png,Stimuli\green_bar1.png,Stimuli\ping.png,midLeft,lowB,downRight,high,midRight,upLeft,upRight,2,rew_low,m,,,,,0,99,99,87,,,0.6,0.6,exp,m,1,-7.16,-7.16,-10.14,0,7.16,-7.16,10.14,0,-7.16,7.16,7.16,7.16,4,234,30,3993,0.7897372999577783,199,200,2,RL,1,F,19,R,2025-06-17_13h07.58.739,RewSL_RL_EEG,
ping,lowB,midLeft,DOWN,red,l,lowA,Stimuli\red_bar1.png,Stimuli\red_bar1.png,Stimuli\ping.png,downRight,high,downLeft,lowC,midRight,upLeft,upRight,3,rew_low,m,,,,,0,0,0,66,,,0.4,0.7,exp,m,1,-10.14,0,7.16,-7.16,-7.16,-7.16,10.14,0,-7.16,7.16,7.16,7.16,6,216,30,3994,0.7951678999816068,200,201,2,RL,1,F,19,R,2025-06-17_13h07.58.739,RewSL_RL_EEG,
ping,lowC,midRight,DOWN,red,r,lowA,Stimuli\red_bar1.png,Stimuli\red_bar1.png,Stimuli\ping.png,downRight,lowB,midLeft,high,downLeft,upLeft,upRight,3,rew_low,m,,,,,0,1,1,94,,,0.5,0.7,exp,m,1,10.14,0,7.16,-7.16,-10.14,0,-7.16,-7.16,-7.16,7.16,7.16,7.16,6,226,30,3995,0.8850148999481462,201,202,2,RL,1,F,19,R,2025-06-17_13h07.58.739,RewSL_RL_EEG,
ping,lowA,downRight,UP,red,l,high,Stimuli\red_bar1.png,Stimuli\red_bar1.png,Stimuli\ping.png,downLeft,lowB,midLeft,lowC,midRight,upLeft,upRight,3,rew_low,z,,,,,0,2,2,40,,,0.4,0.8,exp,m,0,7.16,-7.16,-7.16,-7.16,-10.14,0,10.14,0,-7.16,7.16,7.16,7.16,6,146,30,3995,1.2725998000241816,202,203,2,RL,1,F,19,R,2025-06-17_13h07.58.739,RewSL_RL_EEG,
ping,lowA,downRight,DOWN,red,r,high,Stimuli\red_bar1.png,Stimuli\red_bar1.png,Stimuli\ping.png,downLeft,lowB,midLeft,lowC,midRight,upLeft,upRight,3,rew_low,m,,,,,0,3,3,46,,,0.5,0.6,exp,m,1,7.16,-7.16,-7.16,-7.16,-10.14,0,10.14,0,-7.16,7.16,7.16,7.16,6,246,30,3996,0.8698893000255339,203,204,2,RL,1,F,19,R,2025-06-17_13h07.58.739,RewSL_RL_EEG,
ping,lowC,midRight,DOWN,green,r,lowA,Stimuli\green_bar1.png,Stimuli\green_bar1.png,Stimuli\ping.png,downRight,lowB,midLeft,high,downLeft,upLeft,upRight,3,rew_low,m,,,,,0,4,4,87,,,0.4,0.8,exp,m,1,10.14,0,7.16,-7.16,-10.14,0,-7.16,-7.16,-7.16,7.16,7.16,7.16,6,226,30,3997,0.8792488000472076,204,205,2,RL,1,F,19,R,2025-06-17_13h07.58.739,RewSL_RL_EEG,
ping,lowB,midLeft,UP,red,l,lowA,Stimuli\red_bar1.png,Stimuli\red_bar1.png,Stimuli\ping.png,downRight,high,downLeft,lowC,midRight,upLeft,upRight,3,rew_low,z,,,,,0,5,5,56,,,0.5,0.8,exp,z,1,-10.14,0,7.16,-7.16,-7.16,-7.16,10.14,0,-7.16,7.16,7.16,7.16,6,116,30,3998,0.6472650000359863,205,206,2,RL,1,F,19,R,2025-06-17_13h07.58.739,RewSL_RL_EEG,
ping,lowA,downRight,UP,red,r,high,Stimuli\red_bar1.png,Stimuli\red_bar1.png,Stimuli\ping.png,downLeft,lowB,midLeft,lowC,midRight,upLeft,upRight,3,rew_low,z,,,,,0,6,6,44,,,0.5,0.7,exp,z,1,7.16,-7.16,-7.16,-7.16,-10.14,0,10.14,0,-7.16,7.16,7.16,7.16,6,146,30,3999,0.9879006000119261,206,207,2,RL,1,F,19,R,2025-06-17_13h07.58.739,RewSL_RL_EEG,
ping,lowC,midRight,UP,green,r,lowA,Stimuli\green_bar1.png,Stimuli\green_bar1.png,Stimuli\ping.png,downRight,lowB,midLeft,high,downLeft,upLeft,upRight,3,rew_low,z,,,,,0,7,7,85,,,0.4,0.6,exp,z,1,10.14,0,7.16,-7.16,-10.14,0,-7.16,-7.16,-7.16,7.16,7.16,7.16,6,126,30,4000,0.7206077000009827,207,208,2,RL,1,F,19,R,2025-06-17_13h07.58.739,RewSL_RL_EEG,
ping,high,downLeft,DOWN,red,l,lowA,Stimuli\red_bar1.png,Stimuli\red_bar1.png,Stimuli\ping.png,downRight,lowB,midLeft,lowC,midRight,upLeft,upRight,3,rew_high,m,,,,,0,8,8,18,,,0.6,0.7,exp,None,0,-7.16,-7.16,7.16,-7.16,-10.14,0,10.14,0,-7.16,7.16,7.16,7.16,6,236,31,4000,,208,209,2,RL,1,F,19,R,2025-06-17_13h07.58.739,RewSL_RL_EEG,
ping,high,downLeft,DOWN,green,r,lowA,Stimuli\green_bar1.png,Stimuli\green_bar1.png,Stimuli\ping.png,downRight,lowB,midLeft,lowC,midRight,upLeft,upRight,3,rew_high,m,,,,,0,9,9,15,,,0.6,0.7,exp,m,1,-7.16,-7.16,7.16,-7.16,-10.14,0,10.14,0,-7.16,7.16,7.16,7.16,6,236,31,4100,0.6589926000451669,209,210,2,RL,1,F,19,R,2025-06-17_13h07.58.739,RewSL_RL_EEG,
ping,high,downLeft,DOWN,green,l,lowA,Stimuli\green_bar1.png,Stimuli\green_bar1.png,Stimuli\ping.png,downRight,lowB,midLeft,lowC,midRight,upLeft,upRight,3,rew_high,m,,,,,0,10,10,19,,,0.6,0.7,exp,m,1,-7.16,-7.16,7.16,-7.16,-10.14,0,10.14,0,-7.16,7.16,7.16,7.16,6,236,31,4200,0.8894828999764286,210,211,2,RL,1,F,19,R,2025-06-17_13h07.58.739,RewSL_RL_EEG,
ping,lowB,midLeft,UP,red,r,lowA,Stimuli\red_bar1.png,Stimuli\red_bar1.png,Stimuli\ping.png,downRight,high,downLeft,lowC,midRight,upLeft,upRight,3,rew_low,z,,,,,0,11,11,60,,,0.6,0.6,exp,z,1,-10.14,0,7.16,-7.16,-7.16,-7.16,10.14,0,-7.16,7.16,7.16,7.16,6,116,30,4201,0.7998626999906264,211,212,2,RL,1,F,19,R,2025-06-17_13h07.58.739,RewSL_RL_EEG,
ping,lowA,downRight,DOWN,green,l,high,Stimuli\green_bar1.png,Stimuli\green_bar1.png,Stimuli\ping.png,downLeft,lowB,midLeft,lowC,midRight,upLeft,upRight,3,rew_low,m,,,,,0,12,12,43,,,0.5,0.7,exp,m,1,7.16,-7.16,-7.16,-7.16,-10.14,0,10.14,0,-7.16,7.16,7.16,7.16,6,246,30,4202,0.8923446999979205,212,213,2,RL,1,F,19,R,2025-06-17_13h07.58.739,RewSL_RL_EEG,
ping,lowA,downRight,UP,red,l,high,Stimuli\red_bar1.png,Stimuli\red_bar1.png,Stimuli\ping.png,downLeft,lowB,midLeft,lowC,midRight,upLeft,upRight,3,rew_low,z,,,,,0,13,13,48,,,0.5,0.6,exp,z,1,7.16,-7.16,-7.16,-7.16,-10.14,0,10.14,0,-7.16,7.16,7.16,7.16,6,146,30,4203,1.0333378000068478,213,214,2,RL,1,F,19,R,2025-06-17_13h07.58.739,RewSL_RL_EEG,
ping,lowA,downRight,UP,green,l,high,Stimuli\green_bar1.png,Stimuli\green_bar1.png,Stimuli\ping.png,downLeft,lowB,midLeft,lowC,midRight,upLeft,upRight,3,rew_low,z,,,,,0,14,14,41,,,0.5,0.8,exp,z,1,7.16,-7.16,-7.16,-7.16,-10.14,0,10.14,0,-7.16,7.16,7.16,7.16,6,146,30,4204,0.7794300999958068,214,215,2,RL,1,F,19,R,2025-06-17_13h07.58.739,RewSL_RL_EEG,
ping,lowA,downRight,UP,green,l,high,Stimuli\green_bar1.png,Stimuli\green_bar1.png,Stimuli\ping.png,downLeft,lowB,midLeft,lowC,midRight,upLeft,upRight,3,rew_low,z,,,,,0,15,15,25,,,0.5,0.6,exp,z,1,7.16,-7.16,-7.16,-7.16,-10.14,0,10.14,0,-7.16,7.16,7.16,7.16,6,146,30,4205,0.8682643999927677,215,216,2,RL,1,F,19,R,2025-06-17_13h07.58.739,RewSL_RL_EEG,
ping,lowC,midRight,UP,green,l,lowA,Stimuli\green_bar1.png,Stimuli\green_bar1.png,Stimuli\ping.png,downRight,lowB,midLeft,high,downLeft,upLeft,upRight,3,rew_low,z,,,,,0,16,16,81,,,0.4,0.8,exp,z,1,10.14,0,7.16,-7.16,-10.14,0,-7.16,-7.16,-7.16,7.16,7.16,7.16,6,126,30,4206,0.8299609999521635,216,217,2,RL,1,F,19,R,2025-06-17_13h07.58.739,RewSL_RL_EEG,
ping,lowC,midRight,UP,red,r,lowA,Stimuli\red_bar1.png,Stimuli\red_bar1.png,Stimuli\ping.png,downRight,lowB,midLeft,high,downLeft,upLeft,upRight,3,rew_low,z,,,,,0,17,17,84,,,0.5,0.6,exp,z,1,10.14,0,7.16,-7.16,-10.14,0,-7.16,-7.16,-7.16,7.16,7.16,7.16,6,126,30,4207,0.6057584999944083,217,218,2,RL,1,F,19,R,2025-06-17_13h07.58.739,RewSL_RL_EEG,
ping,high,downLeft,UP,red,r,lowA,Stimuli\red_bar1.png,Stimuli\red_bar1.png,Stimuli\ping.png,downRight,lowB,midLeft,lowC,midRight,upLeft,upRight,3,rew_high,z,,,,,0,18,18,20,,,0.5,0.8,exp,z,1,-7.16,-7.16,7.16,-7.16,-10.14,0,10.14,0,-7.16,7.16,7.16,7.16,6,136,31,4307,0.8608094999799505,218,219,2,RL,1,F,19,R,2025-06-17_13h07.58.739,RewSL_RL_EEG,
ping,lowB,midLeft,UP,green,r,lowA,Stimuli\green_bar1.png,Stimuli\green_bar1.png,Stimuli\ping.png,downRight,high,downLeft,lowC,midRight,upLeft,upRight,3,rew_low,z,,,,,0,19,19,61,,,0.6,0.6,exp,z,1,-10.14,0,7.16,-7.16,-7.16,-7.16,10.14,0,-7.16,7.16,7.16,7.16,6,116,30,4308,0.6061068000271916,219,220,2,RL,1,F,19,R,2025-06-17_13h07.58.739,RewSL_RL_EEG,
ping,high,downLeft,DOWN,green,r,lowA,Stimuli\green_bar1.png,Stimuli\green_bar1.png,Stimuli\ping.png,downRight,lowB,midLeft,lowC,midRight,upLeft,upRight,3,rew_high,m,,,,,0,20,20,7,,,0.5,0.8,exp,m,1,-7.16,-7.16,7.16,-7.16,-10.14,0,10.14,0,-7.16,7.16,7.16,7.16,6,236,31,4408,0.9001560999895446,220,221,2,RL,1,F,19,R,2025-06-17_13h07.58.739,RewSL_RL_EEG,
ping,lowB,midLeft,DOWN,red,r,lowA,Stimuli\red_bar1.png,Stimuli\red_bar1.png,Stimuli\ping.png,downRight,high,downLeft,lowC,midRight,upLeft,upRight,3,rew_low,m,,,,,0,21,21,70,,,0.6,0.7,exp,m,1,-10.14,0,7.16,-7.16,-7.16,-7.16,10.14,0,-7.16,7.16,7.16,7.16,6,216,30,4409,0.6681796000339091,221,222,2,RL,1,F,19,R,2025-06-17_13h07.58.739,RewSL_RL_EEG,
ping,high,downLeft,DOWN,red,l,lowA,Stimuli\red_bar1.png,Stimuli\red_bar1.png,Stimuli\ping.png,downRight,lowB,midLeft,lowC,midRight,upLeft,upRight,3,rew_high,m,,,,,0,22,22,10,,,0.6,0.7,exp,m,1,-7.16,-7.16,7.16,-7.16,-10.14,0,10.14,0,-7.16,7.16,7.16,7.16,6,236,31,4509,0.8705755000119098,222,223,2,RL,1,F,19,R,2025-06-17_13h07.58.739,RewSL_RL_EEG,
ping,high,downLeft,UP,red,r,lowA,Stimuli\red_bar1.png,Stimuli\red_bar1.png,Stimuli\ping.png,downRight,lowB,midLeft,lowC,midRight,upLeft,upRight,3,rew_high,z,,,,,0,23,23,12,,,0.4,0.7,exp,m,0,-7.16,-7.16,7.16,-7.16,-10.14,0,10.14,0,-7.16,7.16,7.16,7.16,6,136,31,4509,0.8381154999951832,223,224,2,RL,1,F,19,R,2025-06-17_13h07.58.739,RewSL_RL_EEG,
ping,lowB,midLeft,DOWN,green,l,lowA,Stimuli\green_bar1.png,Stimuli\green_bar1.png,Stimuli\ping.png,downRight,high,downLeft,lowC,midRight,upLeft,upRight,3,rew_low,m,,,,,0,24,24,59,,,0.5,0.7,exp,m,1,-10.14,0,7.16,-7.16,-7.16,-7.16,10.14,0,-7.16,7.16,7.16,7.16,6,216,30,4510,0.8799466000054963,224,225,2,RL,1,F,19,R,2025-06-17_13h07.58.739,RewSL_RL_EEG,
ping,lowC,midRight,DOWN,green,l,lowA,Stimuli\green_bar1.png,Stimuli\green_bar1.png,Stimuli\ping.png,downRight,lowB,midLeft,high,downLeft,upLeft,upRight,3,rew_low,m,,,,,0,25,25,91,,,0.4,0.7,exp,m,1,10.14,0,7.16,-7.16,-10.14,0,-7.16,-7.16,-7.16,7.16,7.16,7.16,6,226,30,4511,1.1749779999954626,225,226,2,RL,1,F,19,R,2025-06-17_13h07.58.739,RewSL_RL_EEG,
ping,high,downLeft,DOWN,green,l,lowA,Stimuli\green_bar1.png,Stimuli\green_bar1.png,Stimuli\ping.png,downRight,lowB,midLeft,lowC,midRight,upLeft,upRight,3,rew_high,m,,,,,0,26,26,11,,,0.4,0.7,exp,m,1,-7.16,-7.16,7.16,-7.16,-10.14,0,10.14,0,-7.16,7.16,7.16,7.16,6,236,31,4611,0.9673389999661595,226,227,2,RL,1,F,19,R,2025-06-17_13h07.58.739,RewSL_RL_EEG,
ping,high,downLeft,UP,red,l,lowA,Stimuli\red_bar1.png,Stimuli\red_bar1.png,Stimuli\ping.png,downRight,lowB,midLeft,lowC,midRight,upLeft,upRight,3,rew_high,z,,,,,0,27,27,8,,,0.4,0.7,exp,z,1,-7.16,-7.16,7.16,-7.16,-10.14,0,10.14,0,-7.16,7.16,7.16,7.16,6,136,31,4711,0.9475211999961175,227,228,2,RL,1,F,19,R,2025-06-17_13h07.58.739,RewSL_RL_EEG,
ping,lowA,downRight,UP,green,r,high,Stimuli\green_bar1.png,Stimuli\green_bar1.png,Stimuli\ping.png,downLeft,lowB,midLeft,lowC,midRight,upLeft,upRight,3,rew_low,z,,,,,0,28,28,29,,,0.5,0.7,exp,z,1,7.16,-7.16,-7.16,-7.16,-10.14,0,10.14,0,-7.16,7.16,7.16,7.16,6,146,30,4712,1.288010900025256,228,229,2,RL,1,F,19,R,2025-06-17_13h07.58.739,RewSL_RL_EEG,
ping,high,downLeft,UP,green,l,lowA,Stimuli\green_bar1.png,Stimuli\green_bar1.png,Stimuli\ping.png,downRight,lowB,midLeft,lowC,midRight,upLeft,upRight,3,rew_high,z,,,,,0,29,29,1,,,0.4,0.7,exp,z,1,-7.16,-7.16,7.16,-7.16,-10.14,0,10.14,0,-7.16,7.16,7.16,7.16,6,136,31,4812,0.7652292000129819,229,230,2,RL,1,F,19,R,2025-06-17_13h07.58.739,RewSL_RL_EEG,
ping,lowA,downRight,UP,green,l,high,Stimuli\green_bar1.png,Stimuli\green_bar1.png,Stimuli\ping.png,downLeft,lowB,midLeft,lowC,midRight,upLeft,upRight,3,rew_low,z,,,,,0,30,30,49,,,0.5,0.6,exp,None,0,7.16,-7.16,-7.16,-7.16,-10.14,0,10.14,0,-7.16,7.16,7.16,7.16,6,146,30,4812,,230,231,2,RL,1,F,19,R,2025-06-17_13h07.58.739,RewSL_RL_EEG,
ping,lowC,midRight,UP,green,r,lowA,Stimuli\green_bar1.png,Stimuli\green_bar1.png,Stimuli\ping.png,downRight,lowB,midLeft,high,downLeft,upLeft,upRight,3,rew_low,z,,,,,0,31,31,77,,,0.5,0.6,exp,z,1,10.14,0,7.16,-7.16,-10.14,0,-7.16,-7.16,-7.16,7.16,7.16,7.16,6,126,30,4813,0.854741399991326,231,232,2,RL,1,F,19,R,2025-06-17_13h07.58.739,RewSL_RL_EEG,
ping,lowC,midRight,UP,red,l,lowA,Stimuli\red_bar1.png,Stimuli\red_bar1.png,Stimuli\ping.png,downRight,lowB,midLeft,high,downLeft,upLeft,upRight,3,rew_low,z,,,,,0,32,32,96,,,0.4,0.8,exp,z,1,10.14,0,7.16,-7.16,-10.14,0,-7.16,-7.16,-7.16,7.16,7.16,7.16,6,126,30,4814,0.8141181999817491,232,233,2,RL,1,F,19,R,2025-06-17_13h07.58.739,RewSL_RL_EEG,
ping,lowB,midLeft,UP,red,l,lowA,Stimuli\red_bar1.png,Stimuli\red_bar1.png,Stimuli\ping.png,downRight,high,downLeft,lowC,midRight,upLeft,upRight,3,rew_low,z,,,,,0,33,33,64,,,0.5,0.7,exp,z,1,-10.14,0,7.16,-7.16,-7.16,-7.16,10.14,0,-7.16,7.16,7.16,7.16,6,116,30,4815,0.7516052999999374,233,234,2,RL,1,F,19,R,2025-06-17_13h07.58.739,RewSL_RL_EEG,
ping,lowB,midLeft,DOWN,green,r,lowA,Stimuli\green_bar1.png,Stimuli\green_bar1.png,Stimuli\ping.png,downRight,high,downLeft,lowC,midRight,upLeft,upRight,3,rew_low,m,,,,,0,34,34,71,,,0.5,0.8,exp,m,1,-10.14,0,7.16,-7.16,-7.16,-7.16,10.14,0,-7.16,7.16,7.16,7.16,6,216,30,4816,0.8803691000211984,234,235,2,RL,1,F,19,R,2025-06-17_13h07.58.739,RewSL_RL_EEG,
ping,lowB,midLeft,UP,red,l,lowA,Stimuli\red_bar1.png,Stimuli\red_bar1.png,Stimuli\ping.png,downRight,high,downLeft,lowC,midRight,upLeft,upRight,3,rew_low,z,,,,,0,35,35,72,,,0.5,0.8,exp,z,1,-10.14,0,7.16,-7.16,-7.16,-7.16,10.14,0,-7.16,7.16,7.16,7.16,6,116,30,4817,0.6074789999984205,235,236,2,RL,1,F,19,R,2025-06-17_13h07.58.739,RewSL_RL_EEG,
ping,lowA,downRight,DOWN,red,l,high,Stimuli\red_bar1.png,Stimuli\red_bar1.png,Stimuli\ping.png,downLeft,lowB,midLeft,lowC,midRight,upLeft,upRight,3,rew_low,m,,,,,0,36,36,26,,,0.6,0.8,exp,m,1,7.16,-7.16,-7.16,-7.16,-10.14,0,10.14,0,-7.16,7.16,7.16,7.16,6,246,30,4818,1.0589903999934904,236,237,2,RL,1,F,19,R,2025-06-17_13h07.58.739,RewSL_RL_EEG,
ping,high,downLeft,UP,green,r,lowA,Stimuli\green_bar1.png,Stimuli\green_bar1.png,Stimuli\ping.png,downRight,lowB,midLeft,lowC,midRight,upLeft,upRight,3,rew_high,z,,,,,0,37,37,13,,,0.6,0.6,exp,z,1,-7.16,-7.16,7.16,-7.16,-10.14,0,10.14,0,-7.16,7.16,7.16,7.16,6,136,31,4918,0.9972984000341967,237,238,2,RL,1,F,19,R,2025-06-17_13h07.58.739,RewSL_RL_EEG,
ping,lowC,midRight,DOWN,red,r,lowA,Stimuli\red_bar1.png,Stimuli\red_bar1.png,Stimuli\ping.png,downRight,lowB,midLeft,high,downLeft,upLeft,upRight,3,rew_low,m,,,,,0,38,38,86,,,0.5,0.7,exp,m,1,10.14,0,7.16,-7.16,-10.14,0,-7.16,-7.16,-7.16,7.16,7.16,7.16,6,226,30,4919,0.668242099985946,238,239,2,RL,1,F,19,R,2025-06-17_13h07.58.739,RewSL_RL_EEG,
ping,lowC,midRight,UP,green,l,lowA,Stimuli\green_bar1.png,Stimuli\green_bar1.png,Stimuli\ping.png,downRight,lowB,midLeft,high,downLeft,upLeft,upRight,3,rew_low,z,,,,,0,39,39,97,,,0.5,0.7,exp,z,1,10.14,0,7.16,-7.16,-10.14,0,-7.16,-7.16,-7.16,7.16,7.16,7.16,6,126,30,4920,0.7386059999698773,239,240,2,RL,1,F,19,R,2025-06-17_13h07.58.739,RewSL_RL_EEG,
ping,lowB,midLeft,DOWN,green,l,lowA,Stimuli\green_bar1.png,Stimuli\green_bar1.png,Stimuli\ping.png,downRight,high,downLeft,lowC,midRight,upLeft,upRight,3,rew_low,m,,,,,0,40,40,51,,,0.4,0.8,exp,m,1,-10.14,0,7.16,-7.16,-7.16,-7.16,10.14,0,-7.16,7.16,7.16,7.16,6,216,30,4921,0.9183638999820687,240,241,2,RL,1,F,19,R,2025-06-17_13h07.58.739,RewSL_RL_EEG,
ping,lowA,downRight,DOWN,green,r,high,Stimuli\green_bar1.png,Stimuli\green_bar1.png,Stimuli\ping.png,downLeft,lowB,midLeft,lowC,midRight,upLeft,upRight,3,rew_low,m,,,,,0,41,41,39,,,0.5,0.7,exp,z,0,7.16,-7.16,-7.16,-7.16,-10.14,0,10.14,0,-7.16,7.16,7.16,7.16,6,246,30,4921,1.2513048999826424,241,242,2,RL,1,F,19,R,2025-06-17_13h07.58.739,RewSL_RL_EEG,
ping,lowA,downRight,DOWN,red,r,high,Stimuli\red_bar1.png,Stimuli\red_bar1.png,Stimuli\ping.png,downLeft,lowB,midLeft,lowC,midRight,upLeft,upRight,3,rew_low,m,,,,,0,42,42,38,,,0.5,0.8,exp,m,1,7.16,-7.16,-7.16,-7.16,-10.14,0,10.14,0,-7.16,7.16,7.16,7.16,6,246,30,4922,1.1141704000183381,242,243,2,RL,1,F,19,R,2025-06-17_13h07.58.739,RewSL_RL_EEG,
ping,lowB,midLeft,DOWN,red,r,lowA,Stimuli\red_bar1.png,Stimuli\red_bar1.png,Stimuli\ping.png,downRight,high,downLeft,lowC,midRight,upLeft,upRight,3,rew_low,m,,,,,0,43,43,62,,,0.5,0.7,exp,m,1,-10.14,0,7.16,-7.16,-7.16,-7.16,10.14,0,-7.16,7.16,7.16,7.16,6,216,30,4923,0.6917591000092216,243,244,2,RL,1,F,19,R,2025-06-17_13h07.58.739,RewSL_RL_EEG,
ping,high,downLeft,UP,green,r,lowA,Stimuli\green_bar1.png,Stimuli\green_bar1.png,Stimuli\ping.png,downRight,lowB,midLeft,lowC,midRight,upLeft,upRight,3,rew_high,z,,,,,0,44,44,5,,,0.4,0.6,exp,z,1,-7.16,-7.16,7.16,-7.16,-10.14,0,10.14,0,-7.16,7.16,7.16,7.16,6,136,31,5023,1.0304599000373855,244,245,2,RL,1,F,19,R,2025-06-17_13h07.58.739,RewSL_RL_EEG,
ping,high,downLeft,DOWN,red,l,lowA,Stimuli\red_bar1.png,Stimuli\red_bar1.png,Stimuli\ping.png,downRight,lowB,midLeft,lowC,midRight,upLeft,upRight,3,rew_high,m,,,,,0,45,45,2,,,0.5,0.6,exp,m,1,-7.16,-7.16,7.16,-7.16,-10.14,0,10.14,0,-7.16,7.16,7.16,7.16,6,236,31,5123,0.6848657999653369,245,246,2,RL,1,F,19,R,2025-06-17_13h07.58.739,RewSL_RL_EEG,
ping,lowA,downRight,DOWN,green,r,high,Stimuli\green_bar1.png,Stimuli\green_bar1.png,Stimuli\ping.png,downLeft,lowB,midLeft,lowC,midRight,upLeft,upRight,3,rew_low,m,,,,,0,46,46,31,,,0.6,0.8,exp,z,0,7.16,-7.16,-7.16,-7.16,-10.14,0,10.14,0,-7.16,7.16,7.16,7.16,6,246,30,5123,1.0220488000195473,246,247,2,RL,1,F,19,R,2025-06-17_13h07.58.739,RewSL_RL_EEG,
ping,lowC,midRight,UP,red,r,lowA,Stimuli\red_bar1.png,Stimuli\red_bar1.png,Stimuli\ping.png,downRight,lowB,midLeft,high,downLeft,upLeft,upRight,3,rew_low,z,,,,,0,47,47,76,,,0.4,0.7,exp,None,0,10.14,0,7.16,-7.16,-10.14,0,-7.16,-7.16,-7.16,7.16,7.16,7.16,6,126,30,5123,,247,248,2,RL,1,F,19,R,2025-06-17_13h07.58.739,RewSL_RL_EEG,
ping,lowC,midRight,DOWN,red,l,lowA,Stimuli\red_bar1.png,Stimuli\red_bar1.png,Stimuli\ping.png,downRight,lowB,midLeft,high,downLeft,upLeft,upRight,3,rew_low,m,,,,,0,48,48,82,,,0.6,0.8,exp,m,1,10.14,0,7.16,-7.16,-10.14,0,-7.16,-7.16,-7.16,7.16,7.16,7.16,6,226,30,5124,0.7880406000185758,248,249,2,RL,1,F,19,R,2025-06-17_13h07.58.739,RewSL_RL_EEG,
ping,lowC,midRight,DOWN,green,r,lowA,Stimuli\green_bar1.png,Stimuli\green_bar1.png,Stimuli\ping.png,downRight,lowB,midLeft,high,downLeft,upLeft,upRight,3,rew_low,m,,,,,0,49,49,99,,,0.4,0.7,exp,None,0,10.14,0,7.16,-7.16,-10.14,0,-7.16,-7.16,-7.16,7.16,7.16,7.16,6,226,30,5124,,249,250,2,RL,1,F,19,R,2025-06-17_13h07.58.739,RewSL_RL_EEG,
ping,lowC,midRight,DOWN,green,l,lowA,Stimuli\green_bar1.png,Stimuli\green_bar1.png,Stimuli\ping.png,downRight,lowB,midLeft,high,downLeft,upLeft,upRight,3,rew_low,m,,,,,0,50,50,83,,,0.5,0.8,exp,m,1,10.14,0,7.16,-7.16,-10.14,0,-7.16,-7.16,-7.16,7.16,7.16,7.16,6,226,30,5125,0.8622290999628603,250,251,2,RL,1,F,19,R,2025-06-17_13h07.58.739,RewSL_RL_EEG,
ping,lowA,downRight,UP,green,r,high,Stimuli\green_bar1.png,Stimuli\green_bar1.png,Stimuli\ping.png,downLeft,lowB,midLeft,lowC,midRight,upLeft,upRight,3,rew_low,z,,,,,0,51,51,45,,,0.5,0.8,exp,None,0,7.16,-7.16,-7.16,-7.16,-10.14,0,10.14,0,-7.16,7.16,7.16,7.16,6,146,30,5125,,251,252,2,RL,1,F,19,R,2025-06-17_13h07.58.739,RewSL_RL_EEG,
ping,lowC,midRight,UP,red,r,lowA,Stimuli\red_bar1.png,Stimuli\red_bar1.png,Stimuli\ping.png,downRight,lowB,midLeft,high,downLeft,upLeft,upRight,3,rew_low,z,,,,,0,52,52,92,,,0.4,0.8,exp,z,1,10.14,0,7.16,-7.16,-10.14,0,-7.16,-7.16,-7.16,7.16,7.16,7.16,6,126,30,5126,1.1181955999927595,252,253,2,RL,1,F,19,R,2025-06-17_13h07.58.739,RewSL_RL_EEG,
ping,lowB,midLeft,DOWN,red,r,lowA,Stimuli\red_bar1.png,Stimuli\red_bar1.png,Stimuli\ping.png,downRight,high,downLeft,lowC,midRight,upLeft,upRight,3,rew_low,m,,,,,0,53,53,54,,,0.6,0.6,exp,m,1,-10.14,0,7.16,-7.16,-7.16,-7.16,10.14,0,-7.16,7.16,7.16,7.16,6,216,30,5127,0.9477560999803245,253,254,2,RL,1,F,19,R,2025-06-17_13h07.58.739,RewSL_RL_EEG,
ping,lowB,midLeft,UP,green,l,lowA,Stimuli\green_bar1.png,Stimuli\green_bar1.png,Stimuli\ping.png,downRight,high,downLeft,lowC,midRight,upLeft,upRight,3,rew_low,z,,,,,0,54,54,57,,,0.4,0.7,exp,z,1,-10.14,0,7.16,-7.16,-7.16,-7.16,10.14,0,-7.16,7.16,7.16,7.16,6,116,30,5128,0.9877033000229858,254,255,2,RL,1,F,19,R,2025-06-17_13h07.58.739,RewSL_RL_EEG,
ping,lowA,downRight,DOWN,green,l,high,Stimuli\green_bar1.png,Stimuli\green_bar1.png,Stimuli\ping.png,downLeft,lowB,midLeft,lowC,midRight,upLeft,upRight,3,rew_low,m,,,,,0,55,55,27,,,0.4,0.7,exp,m,1,7.16,-7.16,-7.16,-7.16,-10.14,0,10.14,0,-7.16,7.16,7.16,7.16,6,246,30,5129,0.8725025000167079,255,256,2,RL,1,F,19,R,2025-06-17_13h07.58.739,RewSL_RL_EEG,
ping,lowA,downRight,UP,green,r,high,Stimuli\green_bar1.png,Stimuli\green_bar1.png,Stimuli\ping.png,downLeft,lowB,midLeft,lowC,midRight,upLeft,upRight,3,rew_low,z,,,,,0,56,56,37,,,0.5,0.6,exp,z,1,7.16,-7.16,-7.16,-7.16,-10.14,0,10.14,0,-7.16,7.16,7.16,7.16,6,146,30,5130,1.158248999970965,256,257,2,RL,1,F,19,R,2025-06-17_13h07.58.739,RewSL_RL_EEG,
ping,lowA,downRight,DOWN,red,l,high,Stimuli\red_bar1.png,Stimuli\red_bar1.png,Stimuli\ping.png,downLeft,lowB,midLeft,lowC,midRight,upLeft,upRight,3,rew_low,m,,,,,0,57,57,42,,,0.6,0.6,exp,m,1,7.16,-7.16,-7.16,-7.16,-10.14,0,10.14,0,-7.16,7.16,7.16,7.16,6,246,30,5131,0.6504718000069261,257,258,2,RL,1,F,19,R,2025-06-17_13h07.58.739,RewSL_RL_EEG,
ping,high,downLeft,UP,green,l,lowA,Stimuli\green_bar1.png,Stimuli\green_bar1.png,Stimuli\ping.png,downRight,lowB,midLeft,lowC,midRight,upLeft,upRight,3,rew_high,z,,,,,0,58,58,9,,,0.4,0.6,exp,z,1,-7.16,-7.16,7.16,-7.16,-10.14,0,10.14,0,-7.16,7.16,7.16,7.16,6,136,31,5231,0.7434551999904215,258,259,2,RL,1,F,19,R,2025-06-17_13h07.58.739,RewSL_RL_EEG,
ping,lowC,midRight,DOWN,red,l,lowA,Stimuli\red_bar1.png,Stimuli\red_bar1.png,Stimuli\ping.png,downRight,lowB,midLeft,high,downLeft,upLeft,upRight,3,rew_low,m,,,,,0,59,59,90,,,0.6,0.7,exp,m,1,10.14,0,7.16,-7.16,-10.14,0,-7.16,-7.16,-7.16,7.16,7.16,7.16,6,226,30,5232,0.7620948000112548,259,260,2,RL,1,F,19,R,2025-06-17_13h07.58.739,RewSL_RL_EEG,
ping,lowA,downRight,DOWN,green,r,high,Stimuli\green_bar1.png,Stimuli\green_bar1.png,Stimuli\ping.png,downLeft,lowB,midLeft,lowC,midRight,upLeft,upRight,3,rew_low,m,,,,,0,60,60,47,,,0.5,0.6,exp,z,0,7.16,-7.16,-7.16,-7.16,-10.14,0,10.14,0,-7.16,7.16,7.16,7.16,6,246,30,5232,0.84233920002589,260,261,2,RL,1,F,19,R,2025-06-17_13h07.58.739,RewSL_RL_EEG,
ping,lowC,midRight,DOWN,red,r,lowA,Stimuli\red_bar1.png,Stimuli\red_bar1.png,Stimuli\ping.png,downRight,lowB,midLeft,high,downLeft,upLeft,upRight,3,rew_low,m,,,,,0,61,61,98,,,0.5,0.6,exp,m,1,10.14,0,7.16,-7.16,-10.14,0,-7.16,-7.16,-7.16,7.16,7.16,7.16,6,226,30,5233,0.8682911999640055,261,262,2,RL,1,F,19,R,2025-06-17_13h07.58.739,RewSL_RL_EEG,
ping,high,downLeft,DOWN,red,r,lowA,Stimuli\red_bar1.png,Stimuli\red_bar1.png,Stimuli\ping.png,downRight,lowB,midLeft,lowC,midRight,upLeft,upRight,3,rew_high,m,,,,,0,62,62,22,,,0.5,0.8,exp,m,1,-7.16,-7.16,7.16,-7.16,-10.14,0,10.14,0,-7.16,7.16,7.16,7.16,6,236,31,5333,0.8540060999803245,262,263,2,RL,1,F,19,R,2025-06-17_13h07.58.739,RewSL_RL_EEG,
ping,high,downLeft,DOWN,red,r,lowA,Stimuli\red_bar1.png,Stimuli\red_bar1.png,Stimuli\ping.png,downRight,lowB,midLeft,lowC,midRight,upLeft,upRight,3,rew_high,m,,,,,0,63,63,14,,,0.5,0.6,exp,m,1,-7.16,-7.16,7.16,-7.16,-10.14,0,10.14,0,-7.16,7.16,7.16,7.16,6,236,31,5433,0.7099978000042029,263,264,2,RL,1,F,19,R,2025-06-17_13h07.58.739,RewSL_RL_EEG,
ping,lowB,midLeft,DOWN,red,l,lowA,Stimuli\red_bar1.png,Stimuli\red_bar1.png,Stimuli\ping.png,downRight,high,downLeft,lowC,midRight,upLeft,upRight,3,rew_low,m,,,,,0,64,64,50,,,0.4,0.7,exp,m,1,-10.14,0,7.16,-7.16,-7.16,-7.16,10.14,0,-7.16,7.16,7.16,7.16,6,216,30,5434,0.592048300022725,264,265,2,RL,1,F,19,R,2025-06-17_13h07.58.739,RewSL_RL_EEG,
ping,lowB,midLeft,UP,green,r,lowA,Stimuli\green_bar1.png,Stimuli\green_bar1.png,Stimuli\ping.png,downRight,high,downLeft,lowC,midRight,upLeft,upRight,3,rew_low,z,,,,,0,65,65,69,,,0.6,0.8,exp,z,1,-10.14,0,7.16,-7.16,-7.16,-7.16,10.14,0,-7.16,7.16,7.16,7.16,6,116,30,5435,0.7503744999994524,265,266,2,RL,1,F,19,R,2025-06-17_13h07.58.739,RewSL_RL_EEG,
ping,high,downLeft,UP,red,r,lowA,Stimuli\red_bar1.png,Stimuli\red_bar1.png,Stimuli\ping.png,downRight,lowB,midLeft,lowC,midRight,upLeft,upRight,3,rew_high,z,,,,,0,66,66,4,,,0.4,0.7,exp,z,1,-7.16,-7.16,7.16,-7.16,-10.14,0,10.14,0,-7.16,7.16,7.16,7.16,6,136,31,5535,0.9590529999695718,266,267,2,RL,1,F,19,R,2025-06-17_13h07.58.739,RewSL_RL_EEG,
ping,lowC,midRight,UP,red,l,lowA,Stimuli\red_bar1.png,Stimuli\red_bar1.png,Stimuli\ping.png,downRight,lowB,midLeft,high,downLeft,upLeft,upRight,3,rew_low,z,,,,,0,67,67,88,,,0.5,0.8,exp,None,0,10.14,0,7.16,-7.16,-10.14,0,-7.16,-7.16,-7.16,7.16,7.16,7.16,6,126,30,5535,,267,268,2,RL,1,F,19,R,2025-06-17_13h07.58.739,RewSL_RL_EEG,
ping,lowB,midLeft,UP,red,r,lowA,Stimuli\red_bar1.png,Stimuli\red_bar1.png,Stimuli\ping.png,downRight,high,downLeft,lowC,midRight,upLeft,upRight,3,rew_low,z,,,,,0,68,68,52,,,0.4,0.6,exp,z,1,-10.14,0,7.16,-7.16,-7.16,-7.16,10.14,0,-7.16,7.16,7.16,7.16,6,116,30,5536,0.5767579000093974,268,269,2,RL,1,F,19,R,2025-06-17_13h07.58.739,RewSL_RL_EEG,
ping,lowB,midLeft,DOWN,green,r,lowA,Stimuli\green_bar1.png,Stimuli\green_bar1.png,Stimuli\ping.png,downRight,high,downLeft,lowC,midRight,upLeft,upRight,3,rew_low,m,,,,,0,69,69,55,,,0.5,0.8,exp,m,1,-10.14,0,7.16,-7.16,-7.16,-7.16,10.14,0,-7.16,7.16,7.16,7.16,6,216,30,5537,0.7222457000170834,269,270,2,RL,1,F,19,R,2025-06-17_13h07.58.739,RewSL_RL_EEG,
ping,high,downLeft,DOWN,green,l,lowA,Stimuli\green_bar1.png,Stimuli\green_bar1.png,Stimuli\ping.png,downRight,lowB,midLeft,lowC,midRight,upLeft,upRight,3,rew_high,m,,,,,0,70,70,3,,,0.4,0.6,exp,m,1,-7.16,-7.16,7.16,-7.16,-10.14,0,10.14,0,-7.16,7.16,7.16,7.16,6,236,31,5637,1.0723637000191957,270,271,2,RL,1,F,19,R,2025-06-17_13h07.58.739,RewSL_RL_EEG,
ping,lowA,downRight,DOWN,red,r,high,Stimuli\red_bar1.png,Stimuli\red_bar1.png,Stimuli\ping.png,downLeft,lowB,midLeft,lowC,midRight,upLeft,upRight,3,rew_low,m,,,,,0,71,71,30,,,0.4,0.7,exp,m,1,7.16,-7.16,-7.16,-7.16,-10.14,0,10.14,0,-7.16,7.16,7.16,7.16,6,246,30,5638,1.2099352999939583,271,272,2,RL,1,F,19,R,2025-06-17_13h07.58.739,RewSL_RL_EEG,
ping,high,downLeft,UP,green,l,lowA,Stimuli\green_bar1.png,Stimuli\green_bar1.png,Stimuli\ping.png,downRight,lowB,midLeft,lowC,midRight,upLeft,upRight,3,rew_high,z,,,,,0,72,72,17,,,0.5,0.6,exp,z,1,-7.16,-7.16,7.16,-7.16,-10.14,0,10.14,0,-7.16,7.16,7.16,7.16,6,136,31,5738,0.8048891999642365,272,273,2,RL,1,F,19,R,2025-06-17_13h07.58.739,RewSL_RL_EEG,
ping,lowA,downRight,DOWN,green,l,high,Stimuli\green_bar1.png,Stimuli\green_bar1.png,Stimuli\ping.png,downLeft,lowB,midLeft,lowC,midRight,upLeft,upRight,3,rew_low,m,,,,,0,73,73,35,,,0.5,0.8,exp,m,1,7.16,-7.16,-7.16,-7.16,-10.14,0,10.14,0,-7.16,7.16,7.16,7.16,6,246,30,5739,0.6641610999940895,273,274,2,RL,1,F,19,R,2025-06-17_13h07.58.739,RewSL_RL_EEG,
