trial_type,t_frequency,targetPos,Gap,arrayColor,targetOri,f1_frequency,TargetFile,stimuliFile,pingFile,f1_pos,f2_frequency,f2_pos,f3_frequency,f3_pos,f4_pos,f5_pos,Rlblock,Reward,corrAns,trials_p.thisRepN,trials_p.thisTrialN,trials_p.thisN,trials_p.thisIndex,trials_e.thisRepN,trials_e.thisTrialN,trials_e.thisN,trials_e.thisIndex,thisRow.t,notes,FIX,PINGdur,epoch,key_resp.keys,key_resp.corr,targetX,targetY,filler1X,filler1Y,filler2X,filler2Y,filler3X,filler3Y,filler4X,filler4Y,filler5X,filler5Y,pingID,ID,rewID,reward_sum,key_resp.rt,completed_trials,trial_count,participant,learning,session_nr,gender,age,handedness,date,expName,
ping,lowB,downLeft,DOWN,red,r,lowA,Stimuli\red_bar1.png,Stimuli\red_bar1.png,Stimuli\ping.png,midRight,high,midLeft,lowC,downRight,upLeft,upRight,1,rew_low,m,0,0,0,10,,,,,,,0.6,0.6,practice,None,0,-7.16,-7.16,10.14,0,-10.14,0,7.16,-7.16,-7.16,7.16,7.16,7.16,2,232,30,0,,,,3,RL,1,M,29,R,2025-04-10_09h05.30.032,RewSL_RL_EEG,
ping,high,midLeft,UP,red,l,lowA,Stimuli\red_bar1.png,Stimuli\red_bar1.png,Stimuli\ping.png,midRight,lowB,downLeft,lowC,downRight,upLeft,upRight,1,rew_high,z,0,1,1,0,,,,,,,0.4,0.7,practice,None,0,-10.14,0,10.14,0,-7.16,-7.16,7.16,-7.16,-7.16,7.16,7.16,7.16,2,112,31,0,,,,3,RL,1,M,29,R,2025-04-10_09h05.30.032,RewSL_RL_EEG,
ping,lowC,downRight,UP,green,l,lowA,Stimuli\green_bar1.png,Stimuli\green_bar1.png,Stimuli\ping.png,midRight,lowB,downLeft,high,midLeft,upLeft,upRight,1,rew_low,z,0,2,2,15,,,,,,,0.6,0.6,practice,None,0,7.16,-7.16,10.14,0,-7.16,-7.16,-10.14,0,-7.16,7.16,7.16,7.16,2,142,30,0,,,,3,RL,1,M,29,R,2025-04-10_09h05.30.032,RewSL_RL_EEG,
ping,lowC,downRight,UP,red,l,lowA,Stimuli\red_bar1.png,Stimuli\red_bar1.png,Stimuli\ping.png,midRight,lowB,downLeft,high,midLeft,upLeft,upRight,1,rew_low,z,0,3,3,14,,,,,,,0.5,0.7,practice,z,1,7.16,-7.16,10.14,0,-7.16,-7.16,-10.14,0,-7.16,7.16,7.16,7.16,2,142,30,1,0.3066732000152115,,,3,RL,1,M,29,R,2025-04-10_09h05.30.032,RewSL_RL_EEG,
ping,lowB,downLeft,DOWN,green,r,lowA,Stimuli\green_bar1.png,Stimuli\green_bar1.png,Stimuli\ping.png,midRight,high,midLeft,lowC,downRight,upLeft,upRight,1,rew_low,m,0,4,4,11,,,,,,,0.4,0.6,practice,None,0,-7.16,-7.16,10.14,0,-10.14,0,7.16,-7.16,-7.16,7.16,7.16,7.16,2,232,30,1,,,,3,RL,1,M,29,R,2025-04-10_09h05.30.032,RewSL_RL_EEG,
ping,lowB,downLeft,UP,green,r,lowA,Stimuli\green_bar1.png,Stimuli\green_bar1.png,Stimuli\ping.png,midRight,high,midLeft,lowC,downRight,upLeft,upRight,1,rew_low,z,0,5,5,9,,,,,,,0.4,0.6,practice,m,0,-7.16,-7.16,10.14,0,-10.14,0,7.16,-7.16,-7.16,7.16,7.16,7.16,2,132,30,1,1.2699683000100777,,,3,RL,1,M,29,R,2025-04-10_09h05.30.032,RewSL_RL_EEG,
ping,lowA,midRight,DOWN,green,l,high,Stimuli\green_bar1.png,Stimuli\green_bar1.png,Stimuli\ping.png,midLeft,lowB,downLeft,lowC,downRight,upLeft,upRight,1,rew_low,m,0,6,6,5,,,,,,,0.5,0.6,practice,None,0,10.14,0,-10.14,0,-7.16,-7.16,7.16,-7.16,-7.16,7.16,7.16,7.16,2,222,30,1,,,,3,RL,1,M,29,R,2025-04-10_09h05.30.032,RewSL_RL_EEG,
ping,lowC,downRight,DOWN,green,r,lowA,Stimuli\green_bar1.png,Stimuli\green_bar1.png,Stimuli\ping.png,midRight,lowB,downLeft,high,midLeft,upLeft,upRight,1,rew_low,m,0,7,7,13,,,,,,,0.4,0.7,practice,None,0,7.16,-7.16,10.14,0,-7.16,-7.16,-10.14,0,-7.16,7.16,7.16,7.16,2,242,30,1,,,,3,RL,1,M,29,R,2025-04-10_09h05.30.032,RewSL_RL_EEG,
ping,high,midLeft,DOWN,red,l,lowA,Stimuli\red_bar1.png,Stimuli\red_bar1.png,Stimuli\ping.png,midRight,lowB,downLeft,lowC,downRight,upLeft,upRight,1,rew_high,m,0,8,8,2,,,,,,,0.5,0.7,practice,z,0,-10.14,0,10.14,0,-7.16,-7.16,7.16,-7.16,-7.16,7.16,7.16,7.16,2,212,31,1,0.8269971999980044,,,3,RL,1,M,29,R,2025-04-10_09h05.30.032,RewSL_RL_EEG,
ping,lowC,downRight,DOWN,red,r,lowA,Stimuli\red_bar1.png,Stimuli\red_bar1.png,Stimuli\ping.png,midRight,lowB,downLeft,high,midLeft,upLeft,upRight,1,rew_low,m,0,9,9,12,,,,,,,0.6,0.7,practice,z,0,7.16,-7.16,10.14,0,-7.16,-7.16,-10.14,0,-7.16,7.16,7.16,7.16,2,242,30,1,0.9688852000108454,,,3,RL,1,M,29,R,2025-04-10_09h05.30.032,RewSL_RL_EEG,
ping,lowB,downLeft,UP,red,r,lowA,Stimuli\red_bar1.png,Stimuli\red_bar1.png,Stimuli\ping.png,midRight,high,midLeft,lowC,downRight,upLeft,upRight,1,rew_low,z,0,10,10,8,,,,,,,0.4,0.8,practice,m,0,-7.16,-7.16,10.14,0,-10.14,0,7.16,-7.16,-7.16,7.16,7.16,7.16,2,132,30,1,0.7389658999745734,,,3,RL,1,M,29,R,2025-04-10_09h05.30.032,RewSL_RL_EEG,
ping,high,midLeft,DOWN,green,l,lowA,Stimuli\green_bar1.png,Stimuli\green_bar1.png,Stimuli\ping.png,midRight,lowB,downLeft,lowC,downRight,upLeft,upRight,1,rew_high,m,0,11,11,3,,,,,,,0.4,0.7,practice,None,0,-10.14,0,10.14,0,-7.16,-7.16,7.16,-7.16,-7.16,7.16,7.16,7.16,2,212,31,1,,,,3,RL,1,M,29,R,2025-04-10_09h05.30.032,RewSL_RL_EEG,
ping,lowA,midRight,UP,green,r,high,Stimuli\green_bar1.png,Stimuli\green_bar1.png,Stimuli\ping.png,midLeft,lowB,downLeft,lowC,downRight,upLeft,upRight,1,rew_low,z,0,12,12,7,,,,,,,0.6,0.7,practice,m,0,10.14,0,-10.14,0,-7.16,-7.16,7.16,-7.16,-7.16,7.16,7.16,7.16,2,122,30,1,0.9268090999976266,,,3,RL,1,M,29,R,2025-04-10_09h05.30.032,RewSL_RL_EEG,
ping,lowA,midRight,UP,red,r,high,Stimuli\red_bar1.png,Stimuli\red_bar1.png,Stimuli\ping.png,midLeft,lowB,downLeft,lowC,downRight,upLeft,upRight,1,rew_low,z,0,13,13,6,,,,,,,0.5,0.6,practice,z,1,10.14,0,-10.14,0,-7.16,-7.16,7.16,-7.16,-7.16,7.16,7.16,7.16,2,122,30,2,1.2565382000175305,,,3,RL,1,M,29,R,2025-04-10_09h05.30.032,RewSL_RL_EEG,
ping,lowA,midRight,DOWN,red,l,high,Stimuli\red_bar1.png,Stimuli\red_bar1.png,Stimuli\ping.png,midLeft,lowB,downLeft,lowC,downRight,upLeft,upRight,1,rew_low,m,0,14,14,4,,,,,,,0.5,0.7,practice,None,0,10.14,0,-10.14,0,-7.16,-7.16,7.16,-7.16,-7.16,7.16,7.16,7.16,2,222,30,2,,,,3,RL,1,M,29,R,2025-04-10_09h05.30.032,RewSL_RL_EEG,
ping,high,midLeft,UP,green,l,lowA,Stimuli\green_bar1.png,Stimuli\green_bar1.png,Stimuli\ping.png,midRight,lowB,downLeft,lowC,downRight,upLeft,upRight,1,rew_high,z,0,15,15,1,,,,,,,0.4,0.7,practice,m,0,-10.14,0,10.14,0,-7.16,-7.16,7.16,-7.16,-7.16,7.16,7.16,7.16,2,112,31,2,1.2020119999942835,,,3,RL,1,M,29,R,2025-04-10_09h05.30.032,RewSL_RL_EEG,
ping,high,midRight,DOWN,red,l,lowA,Stimuli\red_bar1.png,Stimuli\red_bar1.png,Stimuli\ping.png,midLeft,lowB,downRight,lowC,downLeft,upLeft,upRight,2,rew_high,m,,,,,0,0,0,18,,,0.4,0.7,exp,z,0,10.14,0,-10.14,0,7.16,-7.16,-7.16,-7.16,-7.16,7.16,7.16,7.16,4,224,31,0,0.872703700006241,0,1,3,RL,1,M,29,R,2025-04-10_09h05.30.032,RewSL_RL_EEG,
ping,high,midRight,UP,green,l,lowA,Stimuli\green_bar1.png,Stimuli\green_bar1.png,Stimuli\ping.png,midLeft,lowB,downRight,lowC,downLeft,upLeft,upRight,2,rew_high,z,,,,,0,1,1,1,,,0.6,0.7,exp,m,0,10.14,0,-10.14,0,7.16,-7.16,-7.16,-7.16,-7.16,7.16,7.16,7.16,4,124,31,0,0.8199629999871831,1,2,3,RL,1,M,29,R,2025-04-10_09h05.30.032,RewSL_RL_EEG,
ping,high,midRight,DOWN,red,r,lowA,Stimuli\red_bar1.png,Stimuli\red_bar1.png,Stimuli\ping.png,midLeft,lowB,downRight,lowC,downLeft,upLeft,upRight,2,rew_high,m,,,,,0,2,2,6,,,0.5,0.7,exp,z,0,10.14,0,-10.14,0,7.16,-7.16,-7.16,-7.16,-7.16,7.16,7.16,7.16,4,224,31,0,1.0231458999915048,2,3,3,RL,1,M,29,R,2025-04-10_09h05.30.032,RewSL_RL_EEG,
ping,lowA,midLeft,DOWN,green,l,high,Stimuli\green_bar1.png,Stimuli\green_bar1.png,Stimuli\ping.png,midRight,lowB,downRight,lowC,downLeft,upLeft,upRight,2,rew_low,m,,,,,0,3,3,27,,,0.4,0.7,exp,m,1,-10.14,0,10.14,0,7.16,-7.16,-7.16,-7.16,-7.16,7.16,7.16,7.16,4,214,30,1,1.0682815000182018,3,4,3,RL,1,M,29,R,2025-04-10_09h05.30.032,RewSL_RL_EEG,
ping,high,midRight,UP,red,l,lowA,Stimuli\red_bar1.png,Stimuli\red_bar1.png,Stimuli\ping.png,midLeft,lowB,downRight,lowC,downLeft,upLeft,upRight,2,rew_high,z,,,,,0,4,4,0,,,0.5,0.7,exp,z,1,10.14,0,-10.14,0,7.16,-7.16,-7.16,-7.16,-7.16,7.16,7.16,7.16,4,124,31,101,1.2106648000190035,4,5,3,RL,1,M,29,R,2025-04-10_09h05.30.032,RewSL_RL_EEG,
ping,lowA,midLeft,UP,red,r,high,Stimuli\red_bar1.png,Stimuli\red_bar1.png,Stimuli\ping.png,midRight,lowB,downRight,lowC,downLeft,upLeft,upRight,2,rew_low,z,,,,,0,5,5,44,,,0.4,0.6,exp,z,1,-10.14,0,10.14,0,7.16,-7.16,-7.16,-7.16,-7.16,7.16,7.16,7.16,4,114,30,102,1.1572735999943689,5,6,3,RL,1,M,29,R,2025-04-10_09h05.30.032,RewSL_RL_EEG,
ping,high,midRight,UP,green,r,lowA,Stimuli\green_bar1.png,Stimuli\green_bar1.png,Stimuli\ping.png,midLeft,lowB,downRight,lowC,downLeft,upLeft,upRight,2,rew_high,z,,,,,0,6,6,13,,,0.6,0.7,exp,z,1,10.14,0,-10.14,0,7.16,-7.16,-7.16,-7.16,-7.16,7.16,7.16,7.16,4,124,31,202,1.1025301999761723,6,7,3,RL,1,M,29,R,2025-04-10_09h05.30.032,RewSL_RL_EEG,
ping,lowC,downLeft,DOWN,red,r,lowA,Stimuli\red_bar1.png,Stimuli\red_bar1.png,Stimuli\ping.png,midLeft,lowB,downRight,high,midRight,upLeft,upRight,2,rew_low,m,,,,,0,7,7,98,,,0.5,0.8,exp,z,0,-7.16,-7.16,-10.14,0,7.16,-7.16,10.14,0,-7.16,7.16,7.16,7.16,4,234,30,202,0.9812676000001375,7,8,3,RL,1,M,29,R,2025-04-10_09h05.30.032,RewSL_RL_EEG,
ping,high,midRight,UP,red,l,lowA,Stimuli\red_bar1.png,Stimuli\red_bar1.png,Stimuli\ping.png,midLeft,lowB,downRight,lowC,downLeft,upLeft,upRight,2,rew_high,z,,,,,0,8,8,8,,,0.4,0.7,exp,z,1,10.14,0,-10.14,0,7.16,-7.16,-7.16,-7.16,-7.16,7.16,7.16,7.16,4,124,31,302,1.1075040000141598,8,9,3,RL,1,M,29,R,2025-04-10_09h05.30.032,RewSL_RL_EEG,
ping,lowB,downRight,DOWN,red,r,lowA,Stimuli\red_bar1.png,Stimuli\red_bar1.png,Stimuli\ping.png,midLeft,high,midRight,lowC,downLeft,upLeft,upRight,2,rew_low,m,,,,,0,9,9,62,,,0.4,0.8,exp,m,1,7.16,-7.16,-10.14,0,10.14,0,-7.16,-7.16,-7.16,7.16,7.16,7.16,4,244,30,303,1.0979018000070937,9,10,3,RL,1,M,29,R,2025-04-10_09h05.30.032,RewSL_RL_EEG,
ping,lowB,downRight,DOWN,green,l,lowA,Stimuli\green_bar1.png,Stimuli\green_bar1.png,Stimuli\ping.png,midLeft,high,midRight,lowC,downLeft,upLeft,upRight,2,rew_low,m,,,,,0,10,10,67,,,0.5,0.6,exp,None,0,7.16,-7.16,-10.14,0,10.14,0,-7.16,-7.16,-7.16,7.16,7.16,7.16,4,244,30,303,,10,11,3,RL,1,M,29,R,2025-04-10_09h05.30.032,RewSL_RL_EEG,
ping,lowB,downRight,DOWN,red,l,lowA,Stimuli\red_bar1.png,Stimuli\red_bar1.png,Stimuli\ping.png,midLeft,high,midRight,lowC,downLeft,upLeft,upRight,2,rew_low,m,,,,,0,11,11,50,,,0.6,0.6,exp,z,0,7.16,-7.16,-10.14,0,10.14,0,-7.16,-7.16,-7.16,7.16,7.16,7.16,4,244,30,303,0.9226841000199784,11,12,3,RL,1,M,29,R,2025-04-10_09h05.30.032,RewSL_RL_EEG,
ping,lowB,downRight,UP,green,l,lowA,Stimuli\green_bar1.png,Stimuli\green_bar1.png,Stimuli\ping.png,midLeft,high,midRight,lowC,downLeft,upLeft,upRight,2,rew_low,z,,,,,0,12,12,57,,,0.5,0.7,exp,m,0,7.16,-7.16,-10.14,0,10.14,0,-7.16,-7.16,-7.16,7.16,7.16,7.16,4,144,30,303,0.8979130999941844,12,13,3,RL,1,M,29,R,2025-04-10_09h05.30.032,RewSL_RL_EEG,
ping,high,midRight,DOWN,red,l,lowA,Stimuli\red_bar1.png,Stimuli\red_bar1.png,Stimuli\ping.png,midLeft,lowB,downRight,lowC,downLeft,upLeft,upRight,2,rew_high,m,,,,,0,13,13,10,,,0.5,0.7,exp,m,1,10.14,0,-10.14,0,7.16,-7.16,-7.16,-7.16,-7.16,7.16,7.16,7.16,4,224,31,403,1.0187602000078186,13,14,3,RL,1,M,29,R,2025-04-10_09h05.30.032,RewSL_RL_EEG,
ping,lowC,downLeft,DOWN,red,r,lowA,Stimuli\red_bar1.png,Stimuli\red_bar1.png,Stimuli\ping.png,midLeft,lowB,downRight,high,midRight,upLeft,upRight,2,rew_low,m,,,,,0,14,14,94,,,0.6,0.8,exp,z,0,-7.16,-7.16,-10.14,0,7.16,-7.16,10.14,0,-7.16,7.16,7.16,7.16,4,234,30,403,0.8601983999833465,14,15,3,RL,1,M,29,R,2025-04-10_09h05.30.032,RewSL_RL_EEG,
ping,high,midRight,DOWN,red,l,lowA,Stimuli\red_bar1.png,Stimuli\red_bar1.png,Stimuli\ping.png,midLeft,lowB,downRight,lowC,downLeft,upLeft,upRight,2,rew_high,m,,,,,0,15,15,2,,,0.5,0.7,exp,m,1,10.14,0,-10.14,0,7.16,-7.16,-7.16,-7.16,-7.16,7.16,7.16,7.16,4,224,31,503,0.6810843000130262,15,16,3,RL,1,M,29,R,2025-04-10_09h05.30.032,RewSL_RL_EEG,
ping,lowA,midLeft,UP,green,l,high,Stimuli\green_bar1.png,Stimuli\green_bar1.png,Stimuli\ping.png,midRight,lowB,downRight,lowC,downLeft,upLeft,upRight,2,rew_low,z,,,,,0,16,16,25,,,0.4,0.7,exp,m,0,-10.14,0,10.14,0,7.16,-7.16,-7.16,-7.16,-7.16,7.16,7.16,7.16,4,114,30,503,0.8399361000047065,16,17,3,RL,1,M,29,R,2025-04-10_09h05.30.032,RewSL_RL_EEG,
ping,high,midRight,DOWN,green,l,lowA,Stimuli\green_bar1.png,Stimuli\green_bar1.png,Stimuli\ping.png,midLeft,lowB,downRight,lowC,downLeft,upLeft,upRight,2,rew_high,m,,,,,0,17,17,3,,,0.6,0.8,exp,z,0,10.14,0,-10.14,0,7.16,-7.16,-7.16,-7.16,-7.16,7.16,7.16,7.16,4,224,31,503,0.7978066999930888,17,18,3,RL,1,M,29,R,2025-04-10_09h05.30.032,RewSL_RL_EEG,
ping,lowA,midLeft,UP,green,l,high,Stimuli\green_bar1.png,Stimuli\green_bar1.png,Stimuli\ping.png,midRight,lowB,downRight,lowC,downLeft,upLeft,upRight,2,rew_low,z,,,,,0,18,18,41,,,0.4,0.7,exp,m,0,-10.14,0,10.14,0,7.16,-7.16,-7.16,-7.16,-7.16,7.16,7.16,7.16,4,114,30,503,0.8802941000030842,18,19,3,RL,1,M,29,R,2025-04-10_09h05.30.032,RewSL_RL_EEG,
ping,lowA,midLeft,UP,green,r,high,Stimuli\green_bar1.png,Stimuli\green_bar1.png,Stimuli\ping.png,midRight,lowB,downRight,lowC,downLeft,upLeft,upRight,2,rew_low,z,,,,,0,19,19,45,,,0.5,0.7,exp,z,1,-10.14,0,10.14,0,7.16,-7.16,-7.16,-7.16,-7.16,7.16,7.16,7.16,4,114,30,504,0.8227322000020649,19,20,3,RL,1,M,29,R,2025-04-10_09h05.30.032,RewSL_RL_EEG,
ping,lowC,downLeft,DOWN,red,l,lowA,Stimuli\red_bar1.png,Stimuli\red_bar1.png,Stimuli\ping.png,midLeft,lowB,downRight,high,midRight,upLeft,upRight,2,rew_low,m,,,,,0,20,20,90,,,0.6,0.7,exp,z,0,-7.16,-7.16,-10.14,0,7.16,-7.16,10.14,0,-7.16,7.16,7.16,7.16,4,234,30,504,1.0518475999997463,20,21,3,RL,1,M,29,R,2025-04-10_09h05.30.032,RewSL_RL_EEG,
ping,lowB,downRight,DOWN,red,l,lowA,Stimuli\red_bar1.png,Stimuli\red_bar1.png,Stimuli\ping.png,midLeft,high,midRight,lowC,downLeft,upLeft,upRight,2,rew_low,m,,,,,0,21,21,58,,,0.5,0.7,exp,m,1,7.16,-7.16,-10.14,0,10.14,0,-7.16,-7.16,-7.16,7.16,7.16,7.16,4,244,30,505,0.9603829999978188,21,22,3,RL,1,M,29,R,2025-04-10_09h05.30.032,RewSL_RL_EEG,
ping,lowC,downLeft,DOWN,red,l,lowA,Stimuli\red_bar1.png,Stimuli\red_bar1.png,Stimuli\ping.png,midLeft,lowB,downRight,high,midRight,upLeft,upRight,2,rew_low,m,,,,,0,22,22,82,,,0.5,0.7,exp,m,1,-7.16,-7.16,-10.14,0,7.16,-7.16,10.14,0,-7.16,7.16,7.16,7.16,4,234,30,506,1.130974999978207,22,23,3,RL,1,M,29,R,2025-04-10_09h05.30.032,RewSL_RL_EEG,
ping,lowC,downLeft,UP,red,l,lowA,Stimuli\red_bar1.png,Stimuli\red_bar1.png,Stimuli\ping.png,midLeft,lowB,downRight,high,midRight,upLeft,upRight,2,rew_low,z,,,,,0,23,23,96,,,0.4,0.6,exp,m,0,-7.16,-7.16,-10.14,0,7.16,-7.16,10.14,0,-7.16,7.16,7.16,7.16,4,134,30,506,1.1604207000054885,23,24,3,RL,1,M,29,R,2025-04-10_09h05.30.032,RewSL_RL_EEG,
ping,lowA,midLeft,DOWN,green,r,high,Stimuli\green_bar1.png,Stimuli\green_bar1.png,Stimuli\ping.png,midRight,lowB,downRight,lowC,downLeft,upLeft,upRight,2,rew_low,m,,,,,0,24,24,39,,,0.4,0.7,exp,m,1,-10.14,0,10.14,0,7.16,-7.16,-7.16,-7.16,-7.16,7.16,7.16,7.16,4,214,30,507,0.8890902000130154,24,25,3,RL,1,M,29,R,2025-04-10_09h05.30.032,RewSL_RL_EEG,
ping,lowB,downRight,DOWN,green,l,lowA,Stimuli\green_bar1.png,Stimuli\green_bar1.png,Stimuli\ping.png,midLeft,high,midRight,lowC,downLeft,upLeft,upRight,2,rew_low,m,,,,,0,25,25,51,,,0.6,0.6,exp,z,0,7.16,-7.16,-10.14,0,10.14,0,-7.16,-7.16,-7.16,7.16,7.16,7.16,4,244,30,507,1.2643453999771737,25,26,3,RL,1,M,29,R,2025-04-10_09h05.30.032,RewSL_RL_EEG,
ping,high,midRight,UP,red,l,lowA,Stimuli\red_bar1.png,Stimuli\red_bar1.png,Stimuli\ping.png,midLeft,lowB,downRight,lowC,downLeft,upLeft,upRight,2,rew_high,z,,,,,0,26,26,16,,,0.6,0.7,exp,z,1,10.14,0,-10.14,0,7.16,-7.16,-7.16,-7.16,-7.16,7.16,7.16,7.16,4,124,31,607,0.7605444999935571,26,27,3,RL,1,M,29,R,2025-04-10_09h05.30.032,RewSL_RL_EEG,
ping,lowA,midLeft,DOWN,green,r,high,Stimuli\green_bar1.png,Stimuli\green_bar1.png,Stimuli\ping.png,midRight,lowB,downRight,lowC,downLeft,upLeft,upRight,2,rew_low,m,,,,,0,27,27,47,,,0.4,0.6,exp,m,1,-10.14,0,10.14,0,7.16,-7.16,-7.16,-7.16,-7.16,7.16,7.16,7.16,4,214,30,608,1.0768842999823391,27,28,3,RL,1,M,29,R,2025-04-10_09h05.30.032,RewSL_RL_EEG,
ping,lowB,downRight,UP,red,r,lowA,Stimuli\red_bar1.png,Stimuli\red_bar1.png,Stimuli\ping.png,midLeft,high,midRight,lowC,downLeft,upLeft,upRight,2,rew_low,z,,,,,0,28,28,52,,,0.5,0.6,exp,m,0,7.16,-7.16,-10.14,0,10.14,0,-7.16,-7.16,-7.16,7.16,7.16,7.16,4,144,30,608,1.0763495999854058,28,29,3,RL,1,M,29,R,2025-04-10_09h05.30.032,RewSL_RL_EEG,
ping,lowC,downLeft,UP,green,r,lowA,Stimuli\green_bar1.png,Stimuli\green_bar1.png,Stimuli\ping.png,midLeft,lowB,downRight,high,midRight,upLeft,upRight,2,rew_low,z,,,,,0,29,29,77,,,0.4,0.6,exp,z,1,-7.16,-7.16,-10.14,0,7.16,-7.16,10.14,0,-7.16,7.16,7.16,7.16,4,134,30,609,1.1856053000083193,29,30,3,RL,1,M,29,R,2025-04-10_09h05.30.032,RewSL_RL_EEG,
ping,lowA,midLeft,UP,red,l,high,Stimuli\red_bar1.png,Stimuli\red_bar1.png,Stimuli\ping.png,midRight,lowB,downRight,lowC,downLeft,upLeft,upRight,2,rew_low,z,,,,,0,30,30,48,,,0.5,0.6,exp,None,0,-10.14,0,10.14,0,7.16,-7.16,-7.16,-7.16,-7.16,7.16,7.16,7.16,4,114,30,609,,30,31,3,RL,1,M,29,R,2025-04-10_09h05.30.032,RewSL_RL_EEG,
ping,lowA,midLeft,UP,red,r,high,Stimuli\red_bar1.png,Stimuli\red_bar1.png,Stimuli\ping.png,midRight,lowB,downRight,lowC,downLeft,upLeft,upRight,2,rew_low,z,,,,,0,31,31,36,,,0.5,0.7,exp,None,0,-10.14,0,10.14,0,7.16,-7.16,-7.16,-7.16,-7.16,7.16,7.16,7.16,4,114,30,609,,31,32,3,RL,1,M,29,R,2025-04-10_09h05.30.032,RewSL_RL_EEG,
ping,lowC,downLeft,UP,green,l,lowA,Stimuli\green_bar1.png,Stimuli\green_bar1.png,Stimuli\ping.png,midLeft,lowB,downRight,high,midRight,upLeft,upRight,2,rew_low,z,,,,,0,32,32,97,,,0.5,0.7,exp,z,1,-7.16,-7.16,-10.14,0,7.16,-7.16,10.14,0,-7.16,7.16,7.16,7.16,4,134,30,610,1.2352806999988388,32,33,3,RL,1,M,29,R,2025-04-10_09h05.30.032,RewSL_RL_EEG,
ping,high,midRight,DOWN,red,r,lowA,Stimuli\red_bar1.png,Stimuli\red_bar1.png,Stimuli\ping.png,midLeft,lowB,downRight,lowC,downLeft,upLeft,upRight,2,rew_high,m,,,,,0,33,33,14,,,0.5,0.7,exp,None,0,10.14,0,-10.14,0,7.16,-7.16,-7.16,-7.16,-7.16,7.16,7.16,7.16,4,224,31,610,,33,34,3,RL,1,M,29,R,2025-04-10_09h05.30.032,RewSL_RL_EEG,
ping,lowB,downRight,DOWN,red,r,lowA,Stimuli\red_bar1.png,Stimuli\red_bar1.png,Stimuli\ping.png,midLeft,high,midRight,lowC,downLeft,upLeft,upRight,2,rew_low,m,,,,,0,34,34,70,,,0.6,0.6,exp,z,0,7.16,-7.16,-10.14,0,10.14,0,-7.16,-7.16,-7.16,7.16,7.16,7.16,4,244,30,610,1.256313100020634,34,35,3,RL,1,M,29,R,2025-04-10_09h05.30.032,RewSL_RL_EEG,
ping,lowB,downRight,DOWN,red,l,lowA,Stimuli\red_bar1.png,Stimuli\red_bar1.png,Stimuli\ping.png,midLeft,high,midRight,lowC,downLeft,upLeft,upRight,2,rew_low,m,,,,,0,35,35,74,,,0.4,0.8,exp,m,1,7.16,-7.16,-10.14,0,10.14,0,-7.16,-7.16,-7.16,7.16,7.16,7.16,4,244,30,611,0.8850248999951873,35,36,3,RL,1,M,29,R,2025-04-10_09h05.30.032,RewSL_RL_EEG,
ping,lowA,midLeft,UP,green,l,high,Stimuli\green_bar1.png,Stimuli\green_bar1.png,Stimuli\ping.png,midRight,lowB,downRight,lowC,downLeft,upLeft,upRight,2,rew_low,z,,,,,0,36,36,49,,,0.6,0.6,exp,m,0,-10.14,0,10.14,0,7.16,-7.16,-7.16,-7.16,-7.16,7.16,7.16,7.16,4,114,30,611,0.839833699981682,36,37,3,RL,1,M,29,R,2025-04-10_09h05.30.032,RewSL_RL_EEG,
ping,lowC,downLeft,UP,red,r,lowA,Stimuli\red_bar1.png,Stimuli\red_bar1.png,Stimuli\ping.png,midLeft,lowB,downRight,high,midRight,upLeft,upRight,2,rew_low,z,,,,,0,37,37,84,,,0.5,0.8,exp,z,1,-7.16,-7.16,-10.14,0,7.16,-7.16,10.14,0,-7.16,7.16,7.16,7.16,4,134,30,612,1.0186357999918982,37,38,3,RL,1,M,29,R,2025-04-10_09h05.30.032,RewSL_RL_EEG,
ping,high,midRight,UP,red,r,lowA,Stimuli\red_bar1.png,Stimuli\red_bar1.png,Stimuli\ping.png,midLeft,lowB,downRight,lowC,downLeft,upLeft,upRight,2,rew_high,z,,,,,0,38,38,20,,,0.5,0.7,exp,m,0,10.14,0,-10.14,0,7.16,-7.16,-7.16,-7.16,-7.16,7.16,7.16,7.16,4,124,31,612,1.0478637000196613,38,39,3,RL,1,M,29,R,2025-04-10_09h05.30.032,RewSL_RL_EEG,
ping,lowC,downLeft,UP,red,r,lowA,Stimuli\red_bar1.png,Stimuli\red_bar1.png,Stimuli\ping.png,midLeft,lowB,downRight,high,midRight,upLeft,upRight,2,rew_low,z,,,,,0,39,39,76,,,0.4,0.7,exp,m,0,-7.16,-7.16,-10.14,0,7.16,-7.16,10.14,0,-7.16,7.16,7.16,7.16,4,134,30,612,1.131254700012505,39,40,3,RL,1,M,29,R,2025-04-10_09h05.30.032,RewSL_RL_EEG,
ping,lowA,midLeft,DOWN,red,r,high,Stimuli\red_bar1.png,Stimuli\red_bar1.png,Stimuli\ping.png,midRight,lowB,downRight,lowC,downLeft,upLeft,upRight,2,rew_low,m,,,,,0,40,40,46,,,0.5,0.7,exp,z,0,-10.14,0,10.14,0,7.16,-7.16,-7.16,-7.16,-7.16,7.16,7.16,7.16,4,214,30,612,1.2518806000007316,40,41,3,RL,1,M,29,R,2025-04-10_09h05.30.032,RewSL_RL_EEG,
ping,lowB,downRight,UP,red,l,lowA,Stimuli\red_bar1.png,Stimuli\red_bar1.png,Stimuli\ping.png,midLeft,high,midRight,lowC,downLeft,upLeft,upRight,2,rew_low,z,,,,,0,41,41,64,,,0.5,0.8,exp,z,1,7.16,-7.16,-10.14,0,10.14,0,-7.16,-7.16,-7.16,7.16,7.16,7.16,4,144,30,613,1.1893855000089388,41,42,3,RL,1,M,29,R,2025-04-10_09h05.30.032,RewSL_RL_EEG,
ping,lowA,midLeft,UP,green,r,high,Stimuli\green_bar1.png,Stimuli\green_bar1.png,Stimuli\ping.png,midRight,lowB,downRight,lowC,downLeft,upLeft,upRight,2,rew_low,z,,,,,0,42,42,29,,,0.6,0.8,exp,None,0,-10.14,0,10.14,0,7.16,-7.16,-7.16,-7.16,-7.16,7.16,7.16,7.16,4,114,30,613,,42,43,3,RL,1,M,29,R,2025-04-10_09h05.30.032,RewSL_RL_EEG,
ping,lowA,midLeft,DOWN,green,l,high,Stimuli\green_bar1.png,Stimuli\green_bar1.png,Stimuli\ping.png,midRight,lowB,downRight,lowC,downLeft,upLeft,upRight,2,rew_low,m,,,,,0,43,43,43,,,0.5,0.8,exp,None,0,-10.14,0,10.14,0,7.16,-7.16,-7.16,-7.16,-7.16,7.16,7.16,7.16,4,214,30,613,,43,44,3,RL,1,M,29,R,2025-04-10_09h05.30.032,RewSL_RL_EEG,
ping,lowC,downLeft,UP,green,l,lowA,Stimuli\green_bar1.png,Stimuli\green_bar1.png,Stimuli\ping.png,midLeft,lowB,downRight,high,midRight,upLeft,upRight,2,rew_low,z,,,,,0,44,44,81,,,0.6,0.8,exp,z,1,-7.16,-7.16,-10.14,0,7.16,-7.16,10.14,0,-7.16,7.16,7.16,7.16,4,134,30,614,1.0558924000069965,44,45,3,RL,1,M,29,R,2025-04-10_09h05.30.032,RewSL_RL_EEG,
ping,lowA,midLeft,DOWN,red,r,high,Stimuli\red_bar1.png,Stimuli\red_bar1.png,Stimuli\ping.png,midRight,lowB,downRight,lowC,downLeft,upLeft,upRight,2,rew_low,m,,,,,0,45,45,38,,,0.5,0.6,exp,None,0,-10.14,0,10.14,0,7.16,-7.16,-7.16,-7.16,-7.16,7.16,7.16,7.16,4,214,30,614,,45,46,3,RL,1,M,29,R,2025-04-10_09h05.30.032,RewSL_RL_EEG,
ping,lowB,downRight,DOWN,green,r,lowA,Stimuli\green_bar1.png,Stimuli\green_bar1.png,Stimuli\ping.png,midLeft,high,midRight,lowC,downLeft,upLeft,upRight,2,rew_low,m,,,,,0,46,46,63,,,0.5,0.7,exp,m,1,7.16,-7.16,-10.14,0,10.14,0,-7.16,-7.16,-7.16,7.16,7.16,7.16,4,244,30,615,1.111195100005716,46,47,3,RL,1,M,29,R,2025-04-10_09h05.30.032,RewSL_RL_EEG,
ping,lowC,downLeft,DOWN,green,r,lowA,Stimuli\green_bar1.png,Stimuli\green_bar1.png,Stimuli\ping.png,midLeft,lowB,downRight,high,midRight,upLeft,upRight,2,rew_low,m,,,,,0,47,47,79,,,0.5,0.6,exp,m,1,-7.16,-7.16,-10.14,0,7.16,-7.16,10.14,0,-7.16,7.16,7.16,7.16,4,234,30,616,1.2062372000073083,47,48,3,RL,1,M,29,R,2025-04-10_09h05.30.032,RewSL_RL_EEG,
ping,lowC,downLeft,DOWN,green,r,lowA,Stimuli\green_bar1.png,Stimuli\green_bar1.png,Stimuli\ping.png,midLeft,lowB,downRight,high,midRight,upLeft,upRight,2,rew_low,m,,,,,0,48,48,99,,,0.4,0.8,exp,m,1,-7.16,-7.16,-10.14,0,7.16,-7.16,10.14,0,-7.16,7.16,7.16,7.16,4,234,30,617,1.228264000004856,48,49,3,RL,1,M,29,R,2025-04-10_09h05.30.032,RewSL_RL_EEG,
ping,lowB,downRight,UP,red,l,lowA,Stimuli\red_bar1.png,Stimuli\red_bar1.png,Stimuli\ping.png,midLeft,high,midRight,lowC,downLeft,upLeft,upRight,2,rew_low,z,,,,,0,49,49,56,,,0.5,0.7,exp,None,0,7.16,-7.16,-10.14,0,10.14,0,-7.16,-7.16,-7.16,7.16,7.16,7.16,4,144,30,617,,49,50,3,RL,1,M,29,R,2025-04-10_09h05.30.032,RewSL_RL_EEG,
ping,lowA,midLeft,UP,red,l,high,Stimuli\red_bar1.png,Stimuli\red_bar1.png,Stimuli\ping.png,midRight,lowB,downRight,lowC,downLeft,upLeft,upRight,2,rew_low,z,,,,,0,50,50,32,,,0.4,0.7,exp,z,1,-10.14,0,10.14,0,7.16,-7.16,-7.16,-7.16,-7.16,7.16,7.16,7.16,4,114,30,618,0.9859430000069551,50,51,3,RL,1,M,29,R,2025-04-10_09h05.30.032,RewSL_RL_EEG,
ping,lowB,downRight,DOWN,green,r,lowA,Stimuli\green_bar1.png,Stimuli\green_bar1.png,Stimuli\ping.png,midLeft,high,midRight,lowC,downLeft,upLeft,upRight,2,rew_low,m,,,,,0,51,51,71,,,0.5,0.8,exp,None,0,7.16,-7.16,-10.14,0,10.14,0,-7.16,-7.16,-7.16,7.16,7.16,7.16,4,244,30,618,,51,52,3,RL,1,M,29,R,2025-04-10_09h05.30.032,RewSL_RL_EEG,
ping,lowB,downRight,UP,green,r,lowA,Stimuli\green_bar1.png,Stimuli\green_bar1.png,Stimuli\ping.png,midLeft,high,midRight,lowC,downLeft,upLeft,upRight,2,rew_low,z,,,,,0,52,52,61,,,0.5,0.7,exp,m,0,7.16,-7.16,-10.14,0,10.14,0,-7.16,-7.16,-7.16,7.16,7.16,7.16,4,144,30,618,1.206120299990289,52,53,3,RL,1,M,29,R,2025-04-10_09h05.30.032,RewSL_RL_EEG,
ping,high,midRight,DOWN,red,r,lowA,Stimuli\red_bar1.png,Stimuli\red_bar1.png,Stimuli\ping.png,midLeft,lowB,downRight,lowC,downLeft,upLeft,upRight,2,rew_high,m,,,,,0,53,53,22,,,0.5,0.7,exp,m,1,10.14,0,-10.14,0,7.16,-7.16,-7.16,-7.16,-7.16,7.16,7.16,7.16,4,224,31,718,0.9561415999778546,53,54,3,RL,1,M,29,R,2025-04-10_09h05.30.032,RewSL_RL_EEG,
ping,high,midRight,UP,red,r,lowA,Stimuli\red_bar1.png,Stimuli\red_bar1.png,Stimuli\ping.png,midLeft,lowB,downRight,lowC,downLeft,upLeft,upRight,2,rew_high,z,,,,,0,54,54,4,,,0.6,0.8,exp,z,1,10.14,0,-10.14,0,7.16,-7.16,-7.16,-7.16,-7.16,7.16,7.16,7.16,4,124,31,818,0.9058389999845531,54,55,3,RL,1,M,29,R,2025-04-10_09h05.30.032,RewSL_RL_EEG,
ping,high,midRight,DOWN,green,l,lowA,Stimuli\green_bar1.png,Stimuli\green_bar1.png,Stimuli\ping.png,midLeft,lowB,downRight,lowC,downLeft,upLeft,upRight,2,rew_high,m,,,,,0,55,55,11,,,0.6,0.6,exp,None,0,10.14,0,-10.14,0,7.16,-7.16,-7.16,-7.16,-7.16,7.16,7.16,7.16,4,224,31,818,,55,56,3,RL,1,M,29,R,2025-04-10_09h05.30.032,RewSL_RL_EEG,
ping,lowA,midLeft,UP,red,l,high,Stimuli\red_bar1.png,Stimuli\red_bar1.png,Stimuli\ping.png,midRight,lowB,downRight,lowC,downLeft,upLeft,upRight,2,rew_low,z,,,,,0,56,56,40,,,0.5,0.8,exp,z,1,-10.14,0,10.14,0,7.16,-7.16,-7.16,-7.16,-7.16,7.16,7.16,7.16,4,114,30,819,0.8982667000091169,56,57,3,RL,1,M,29,R,2025-04-10_09h05.30.032,RewSL_RL_EEG,
ping,lowC,downLeft,DOWN,green,l,lowA,Stimuli\green_bar1.png,Stimuli\green_bar1.png,Stimuli\ping.png,midLeft,lowB,downRight,high,midRight,upLeft,upRight,2,rew_low,m,,,,,0,57,57,91,,,0.5,0.7,exp,m,1,-7.16,-7.16,-10.14,0,7.16,-7.16,10.14,0,-7.16,7.16,7.16,7.16,4,234,30,820,0.9685801999876276,57,58,3,RL,1,M,29,R,2025-04-10_09h05.30.032,RewSL_RL_EEG,
ping,lowC,downLeft,DOWN,red,r,lowA,Stimuli\red_bar1.png,Stimuli\red_bar1.png,Stimuli\ping.png,midLeft,lowB,downRight,high,midRight,upLeft,upRight,2,rew_low,m,,,,,0,58,58,78,,,0.4,0.7,exp,z,0,-7.16,-7.16,-10.14,0,7.16,-7.16,10.14,0,-7.16,7.16,7.16,7.16,4,234,30,820,0.7609802999941166,58,59,3,RL,1,M,29,R,2025-04-10_09h05.30.032,RewSL_RL_EEG,
ping,lowB,downRight,UP,green,r,lowA,Stimuli\green_bar1.png,Stimuli\green_bar1.png,Stimuli\ping.png,midLeft,high,midRight,lowC,downLeft,upLeft,upRight,2,rew_low,z,,,,,0,59,59,69,,,0.5,0.8,exp,z,1,7.16,-7.16,-10.14,0,10.14,0,-7.16,-7.16,-7.16,7.16,7.16,7.16,4,144,30,821,1.0066563000145834,59,60,3,RL,1,M,29,R,2025-04-10_09h05.30.032,RewSL_RL_EEG,
ping,lowC,downLeft,DOWN,green,r,lowA,Stimuli\green_bar1.png,Stimuli\green_bar1.png,Stimuli\ping.png,midLeft,lowB,downRight,high,midRight,upLeft,upRight,2,rew_low,m,,,,,0,60,60,87,,,0.5,0.8,exp,z,0,-7.16,-7.16,-10.14,0,7.16,-7.16,10.14,0,-7.16,7.16,7.16,7.16,4,234,30,821,1.168787800008431,60,61,3,RL,1,M,29,R,2025-04-10_09h05.30.032,RewSL_RL_EEG,
ping,lowC,downLeft,UP,green,r,lowA,Stimuli\green_bar1.png,Stimuli\green_bar1.png,Stimuli\ping.png,midLeft,lowB,downRight,high,midRight,upLeft,upRight,2,rew_low,z,,,,,0,61,61,85,,,0.4,0.7,exp,m,0,-7.16,-7.16,-10.14,0,7.16,-7.16,10.14,0,-7.16,7.16,7.16,7.16,4,134,30,821,1.1024703999864869,61,62,3,RL,1,M,29,R,2025-04-10_09h05.30.032,RewSL_RL_EEG,
ping,lowB,downRight,UP,green,r,lowA,Stimuli\green_bar1.png,Stimuli\green_bar1.png,Stimuli\ping.png,midLeft,high,midRight,lowC,downLeft,upLeft,upRight,2,rew_low,z,,,,,0,62,62,53,,,0.5,0.6,exp,z,1,7.16,-7.16,-10.14,0,10.14,0,-7.16,-7.16,-7.16,7.16,7.16,7.16,4,144,30,822,1.235414299997501,62,63,3,RL,1,M,29,R,2025-04-10_09h05.30.032,RewSL_RL_EEG,
ping,lowC,downLeft,DOWN,red,r,lowA,Stimuli\red_bar1.png,Stimuli\red_bar1.png,Stimuli\ping.png,midLeft,lowB,downRight,high,midRight,upLeft,upRight,2,rew_low,m,,,,,0,63,63,86,,,0.5,0.7,exp,None,0,-7.16,-7.16,-10.14,0,7.16,-7.16,10.14,0,-7.16,7.16,7.16,7.16,4,234,30,822,,63,64,3,RL,1,M,29,R,2025-04-10_09h05.30.032,RewSL_RL_EEG,
ping,lowB,downRight,UP,green,l,lowA,Stimuli\green_bar1.png,Stimuli\green_bar1.png,Stimuli\ping.png,midLeft,high,midRight,lowC,downLeft,upLeft,upRight,2,rew_low,z,,,,,0,64,64,73,,,0.5,0.7,exp,m,0,7.16,-7.16,-10.14,0,10.14,0,-7.16,-7.16,-7.16,7.16,7.16,7.16,4,144,30,822,0.9645344000018667,64,65,3,RL,1,M,29,R,2025-04-10_09h05.30.032,RewSL_RL_EEG,
ping,high,midRight,DOWN,green,l,lowA,Stimuli\green_bar1.png,Stimuli\green_bar1.png,Stimuli\ping.png,midLeft,lowB,downRight,lowC,downLeft,upLeft,upRight,2,rew_high,m,,,,,0,65,65,19,,,0.5,0.6,exp,m,1,10.14,0,-10.14,0,7.16,-7.16,-7.16,-7.16,-7.16,7.16,7.16,7.16,4,224,31,922,0.8984963999828324,65,66,3,RL,1,M,29,R,2025-04-10_09h05.30.032,RewSL_RL_EEG,
ping,high,midRight,DOWN,green,r,lowA,Stimuli\green_bar1.png,Stimuli\green_bar1.png,Stimuli\ping.png,midLeft,lowB,downRight,lowC,downLeft,upLeft,upRight,2,rew_high,m,,,,,0,66,66,15,,,0.4,0.7,exp,m,1,10.14,0,-10.14,0,7.16,-7.16,-7.16,-7.16,-7.16,7.16,7.16,7.16,4,224,31,1022,1.194501299993135,66,67,3,RL,1,M,29,R,2025-04-10_09h05.30.032,RewSL_RL_EEG,
ping,lowB,downRight,DOWN,green,r,lowA,Stimuli\green_bar1.png,Stimuli\green_bar1.png,Stimuli\ping.png,midLeft,high,midRight,lowC,downLeft,upLeft,upRight,2,rew_low,m,,,,,0,67,67,55,,,0.4,0.7,exp,z,0,7.16,-7.16,-10.14,0,10.14,0,-7.16,-7.16,-7.16,7.16,7.16,7.16,4,244,30,1022,0.8689751999918371,67,68,3,RL,1,M,29,R,2025-04-10_09h05.30.032,RewSL_RL_EEG,
ping,lowA,midLeft,DOWN,red,l,high,Stimuli\red_bar1.png,Stimuli\red_bar1.png,Stimuli\ping.png,midRight,lowB,downRight,lowC,downLeft,upLeft,upRight,2,rew_low,m,,,,,0,68,68,42,,,0.4,0.7,exp,z,0,-10.14,0,10.14,0,7.16,-7.16,-7.16,-7.16,-7.16,7.16,7.16,7.16,4,214,30,1022,1.2482361000147648,68,69,3,RL,1,M,29,R,2025-04-10_09h05.30.032,RewSL_RL_EEG,
ping,high,midRight,UP,green,l,lowA,Stimuli\green_bar1.png,Stimuli\green_bar1.png,Stimuli\ping.png,midLeft,lowB,downRight,lowC,downLeft,upLeft,upRight,2,rew_high,z,,,,,0,69,69,9,,,0.5,0.6,exp,m,0,10.14,0,-10.14,0,7.16,-7.16,-7.16,-7.16,-7.16,7.16,7.16,7.16,4,124,31,1022,1.0062036000017542,69,70,3,RL,1,M,29,R,2025-04-10_09h05.30.032,RewSL_RL_EEG,
ping,lowC,downLeft,UP,red,r,lowA,Stimuli\red_bar1.png,Stimuli\red_bar1.png,Stimuli\ping.png,midLeft,lowB,downRight,high,midRight,upLeft,upRight,2,rew_low,z,,,,,0,70,70,92,,,0.5,0.7,exp,m,0,-7.16,-7.16,-10.14,0,7.16,-7.16,10.14,0,-7.16,7.16,7.16,7.16,4,134,30,1022,0.7440069000003859,70,71,3,RL,1,M,29,R,2025-04-10_09h05.30.032,RewSL_RL_EEG,
ping,lowA,midLeft,UP,green,r,high,Stimuli\green_bar1.png,Stimuli\green_bar1.png,Stimuli\ping.png,midRight,lowB,downRight,lowC,downLeft,upLeft,upRight,2,rew_low,z,,,,,0,71,71,37,,,0.5,0.7,exp,m,0,-10.14,0,10.14,0,7.16,-7.16,-7.16,-7.16,-7.16,7.16,7.16,7.16,4,114,30,1022,0.9146071000141092,71,72,3,RL,1,M,29,R,2025-04-10_09h05.30.032,RewSL_RL_EEG,
ping,high,midRight,DOWN,green,r,lowA,Stimuli\green_bar1.png,Stimuli\green_bar1.png,Stimuli\ping.png,midLeft,lowB,downRight,lowC,downLeft,upLeft,upRight,2,rew_high,m,,,,,0,72,72,23,,,0.6,0.7,exp,m,1,10.14,0,-10.14,0,7.16,-7.16,-7.16,-7.16,-7.16,7.16,7.16,7.16,4,224,31,1122,0.6978764999948908,72,73,3,RL,1,M,29,R,2025-04-10_09h05.30.032,RewSL_RL_EEG,
ping,lowB,downRight,UP,green,l,lowA,Stimuli\green_bar1.png,Stimuli\green_bar1.png,Stimuli\ping.png,midLeft,high,midRight,lowC,downLeft,upLeft,upRight,2,rew_low,z,,,,,0,73,73,65,,,0.6,0.6,exp,z,1,7.16,-7.16,-10.14,0,10.14,0,-7.16,-7.16,-7.16,7.16,7.16,7.16,4,144,30,1123,0.9186098000209313,73,74,3,RL,1,M,29,R,2025-04-10_09h05.30.032,RewSL_RL_EEG,
ping,lowC,downLeft,UP,green,l,lowA,Stimuli\green_bar1.png,Stimuli\green_bar1.png,Stimuli\ping.png,midLeft,lowB,downRight,high,midRight,upLeft,upRight,2,rew_low,z,,,,,0,74,74,89,,,0.6,0.7,exp,z,1,-7.16,-7.16,-10.14,0,7.16,-7.16,10.14,0,-7.16,7.16,7.16,7.16,4,134,30,1124,0.9227443999843672,74,75,3,RL,1,M,29,R,2025-04-10_09h05.30.032,RewSL_RL_EEG,
ping,lowC,downLeft,UP,red,l,lowA,Stimuli\red_bar1.png,Stimuli\red_bar1.png,Stimuli\ping.png,midLeft,lowB,downRight,high,midRight,upLeft,upRight,2,rew_low,z,,,,,0,75,75,80,,,0.5,0.8,exp,None,0,-7.16,-7.16,-10.14,0,7.16,-7.16,10.14,0,-7.16,7.16,7.16,7.16,4,134,30,1124,,75,76,3,RL,1,M,29,R,2025-04-10_09h05.30.032,RewSL_RL_EEG,
ping,high,midRight,UP,green,l,lowA,Stimuli\green_bar1.png,Stimuli\green_bar1.png,Stimuli\ping.png,midLeft,lowB,downRight,lowC,downLeft,upLeft,upRight,2,rew_high,z,,,,,0,76,76,17,,,0.6,0.6,exp,z,1,10.14,0,-10.14,0,7.16,-7.16,-7.16,-7.16,-7.16,7.16,7.16,7.16,4,124,31,1224,0.869899000012083,76,77,3,RL,1,M,29,R,2025-04-10_09h05.30.032,RewSL_RL_EEG,
ping,lowA,midLeft,DOWN,green,l,high,Stimuli\green_bar1.png,Stimuli\green_bar1.png,Stimuli\ping.png,midRight,lowB,downRight,lowC,downLeft,upLeft,upRight,2,rew_low,m,,,,,0,77,77,35,,,0.5,0.7,exp,m,1,-10.14,0,10.14,0,7.16,-7.16,-7.16,-7.16,-7.16,7.16,7.16,7.16,4,214,30,1225,1.0396715000097174,77,78,3,RL,1,M,29,R,2025-04-10_09h05.30.032,RewSL_RL_EEG,
ping,lowC,downLeft,DOWN,green,l,lowA,Stimuli\green_bar1.png,Stimuli\green_bar1.png,Stimuli\ping.png,midLeft,lowB,downRight,high,midRight,upLeft,upRight,2,rew_low,m,,,,,0,78,78,83,,,0.6,0.8,exp,z,0,-7.16,-7.16,-10.14,0,7.16,-7.16,10.14,0,-7.16,7.16,7.16,7.16,4,234,30,1225,1.0062562999955844,78,79,3,RL,1,M,29,R,2025-04-10_09h05.30.032,RewSL_RL_EEG,
ping,lowA,midLeft,UP,green,l,high,Stimuli\green_bar1.png,Stimuli\green_bar1.png,Stimuli\ping.png,midRight,lowB,downRight,lowC,downLeft,upLeft,upRight,2,rew_low,z,,,,,0,79,79,33,,,0.5,0.6,exp,z,1,-10.14,0,10.14,0,7.16,-7.16,-7.16,-7.16,-7.16,7.16,7.16,7.16,4,114,30,1226,1.0681356999848504,79,80,3,RL,1,M,29,R,2025-04-10_09h05.30.032,RewSL_RL_EEG,
ping,lowB,downRight,DOWN,red,l,lowA,Stimuli\red_bar1.png,Stimuli\red_bar1.png,Stimuli\ping.png,midLeft,high,midRight,lowC,downLeft,upLeft,upRight,2,rew_low,m,,,,,0,80,80,66,,,0.4,0.8,exp,None,0,7.16,-7.16,-10.14,0,10.14,0,-7.16,-7.16,-7.16,7.16,7.16,7.16,4,244,30,1226,,80,81,3,RL,1,M,29,R,2025-04-10_09h05.30.032,RewSL_RL_EEG,
ping,lowB,downRight,DOWN,green,l,lowA,Stimuli\green_bar1.png,Stimuli\green_bar1.png,Stimuli\ping.png,midLeft,high,midRight,lowC,downLeft,upLeft,upRight,2,rew_low,m,,,,,0,81,81,59,,,0.4,0.6,exp,m,1,7.16,-7.16,-10.14,0,10.14,0,-7.16,-7.16,-7.16,7.16,7.16,7.16,4,244,30,1227,1.189996799977962,81,82,3,RL,1,M,29,R,2025-04-10_09h05.30.032,RewSL_RL_EEG,
ping,high,midRight,UP,red,l,lowA,Stimuli\red_bar1.png,Stimuli\red_bar1.png,Stimuli\ping.png,midLeft,lowB,downRight,lowC,downLeft,upLeft,upRight,2,rew_high,z,,,,,0,82,82,24,,,0.4,0.7,exp,z,1,10.14,0,-10.14,0,7.16,-7.16,-7.16,-7.16,-7.16,7.16,7.16,7.16,4,124,31,1327,1.0151952999876812,82,83,3,RL,1,M,29,R,2025-04-10_09h05.30.032,RewSL_RL_EEG,
ping,lowA,midLeft,DOWN,red,r,high,Stimuli\red_bar1.png,Stimuli\red_bar1.png,Stimuli\ping.png,midRight,lowB,downRight,lowC,downLeft,upLeft,upRight,2,rew_low,m,,,,,0,83,83,30,,,0.5,0.8,exp,m,1,-10.14,0,10.14,0,7.16,-7.16,-7.16,-7.16,-7.16,7.16,7.16,7.16,4,214,30,1328,1.1439973999804351,83,84,3,RL,1,M,29,R,2025-04-10_09h05.30.032,RewSL_RL_EEG,
ping,lowA,midLeft,DOWN,green,r,high,Stimuli\green_bar1.png,Stimuli\green_bar1.png,Stimuli\ping.png,midRight,lowB,downRight,lowC,downLeft,upLeft,upRight,2,rew_low,m,,,,,0,84,84,31,,,0.5,0.7,exp,m,1,-10.14,0,10.14,0,7.16,-7.16,-7.16,-7.16,-7.16,7.16,7.16,7.16,4,214,30,1329,1.0903851999901235,84,85,3,RL,1,M,29,R,2025-04-10_09h05.30.032,RewSL_RL_EEG,
ping,lowC,downLeft,DOWN,green,l,lowA,Stimuli\green_bar1.png,Stimuli\green_bar1.png,Stimuli\ping.png,midLeft,lowB,downRight,high,midRight,upLeft,upRight,2,rew_low,m,,,,,0,85,85,75,,,0.6,0.8,exp,None,0,-7.16,-7.16,-10.14,0,7.16,-7.16,10.14,0,-7.16,7.16,7.16,7.16,4,234,30,1329,,85,86,3,RL,1,M,29,R,2025-04-10_09h05.30.032,RewSL_RL_EEG,
ping,high,midRight,UP,green,r,lowA,Stimuli\green_bar1.png,Stimuli\green_bar1.png,Stimuli\ping.png,midLeft,lowB,downRight,lowC,downLeft,upLeft,upRight,2,rew_high,z,,,,,0,86,86,21,,,0.6,0.7,exp,m,0,10.14,0,-10.14,0,7.16,-7.16,-7.16,-7.16,-7.16,7.16,7.16,7.16,4,124,31,1329,1.0073388000018895,86,87,3,RL,1,M,29,R,2025-04-10_09h05.30.032,RewSL_RL_EEG,
ping,lowB,downRight,UP,red,r,lowA,Stimuli\red_bar1.png,Stimuli\red_bar1.png,Stimuli\ping.png,midLeft,high,midRight,lowC,downLeft,upLeft,upRight,2,rew_low,z,,,,,0,87,87,60,,,0.6,0.8,exp,z,1,7.16,-7.16,-10.14,0,10.14,0,-7.16,-7.16,-7.16,7.16,7.16,7.16,4,144,30,1330,1.069522199977655,87,88,3,RL,1,M,29,R,2025-04-10_09h05.30.032,RewSL_RL_EEG,
ping,lowA,midLeft,UP,red,r,high,Stimuli\red_bar1.png,Stimuli\red_bar1.png,Stimuli\ping.png,midRight,lowB,downRight,lowC,downLeft,upLeft,upRight,2,rew_low,z,,,,,0,88,88,28,,,0.4,0.7,exp,None,0,-10.14,0,10.14,0,7.16,-7.16,-7.16,-7.16,-7.16,7.16,7.16,7.16,4,114,30,1330,,88,89,3,RL,1,M,29,R,2025-04-10_09h05.30.032,RewSL_RL_EEG,
ping,lowB,downRight,UP,red,r,lowA,Stimuli\red_bar1.png,Stimuli\red_bar1.png,Stimuli\ping.png,midLeft,high,midRight,lowC,downLeft,upLeft,upRight,2,rew_low,z,,,,,0,89,89,68,,,0.6,0.7,exp,z,1,7.16,-7.16,-10.14,0,10.14,0,-7.16,-7.16,-7.16,7.16,7.16,7.16,4,144,30,1331,1.0935048999963328,89,90,3,RL,1,M,29,R,2025-04-10_09h05.30.032,RewSL_RL_EEG,
ping,lowA,midLeft,DOWN,red,l,high,Stimuli\red_bar1.png,Stimuli\red_bar1.png,Stimuli\ping.png,midRight,lowB,downRight,lowC,downLeft,upLeft,upRight,2,rew_low,m,,,,,0,90,90,34,,,0.4,0.8,exp,m,1,-10.14,0,10.14,0,7.16,-7.16,-7.16,-7.16,-7.16,7.16,7.16,7.16,4,214,30,1332,1.005997500004014,90,91,3,RL,1,M,29,R,2025-04-10_09h05.30.032,RewSL_RL_EEG,
ping,lowA,midLeft,DOWN,red,l,high,Stimuli\red_bar1.png,Stimuli\red_bar1.png,Stimuli\ping.png,midRight,lowB,downRight,lowC,downLeft,upLeft,upRight,2,rew_low,m,,,,,0,91,91,26,,,0.5,0.7,exp,m,1,-10.14,0,10.14,0,7.16,-7.16,-7.16,-7.16,-7.16,7.16,7.16,7.16,4,214,30,1333,1.0019109999993816,91,92,3,RL,1,M,29,R,2025-04-10_09h05.30.032,RewSL_RL_EEG,
ping,high,midRight,DOWN,green,r,lowA,Stimuli\green_bar1.png,Stimuli\green_bar1.png,Stimuli\ping.png,midLeft,lowB,downRight,lowC,downLeft,upLeft,upRight,2,rew_high,m,,,,,0,92,92,7,,,0.6,0.6,exp,z,0,10.14,0,-10.14,0,7.16,-7.16,-7.16,-7.16,-7.16,7.16,7.16,7.16,4,224,31,1333,1.0268809999979567,92,93,3,RL,1,M,29,R,2025-04-10_09h05.30.032,RewSL_RL_EEG,
ping,lowC,downLeft,UP,red,l,lowA,Stimuli\red_bar1.png,Stimuli\red_bar1.png,Stimuli\ping.png,midLeft,lowB,downRight,high,midRight,upLeft,upRight,2,rew_low,z,,,,,0,93,93,88,,,0.6,0.7,exp,m,0,-7.16,-7.16,-10.14,0,7.16,-7.16,10.14,0,-7.16,7.16,7.16,7.16,4,134,30,1333,0.9052650999801699,93,94,3,RL,1,M,29,R,2025-04-10_09h05.30.032,RewSL_RL_EEG,
ping,lowB,downRight,UP,red,l,lowA,Stimuli\red_bar1.png,Stimuli\red_bar1.png,Stimuli\ping.png,midLeft,high,midRight,lowC,downLeft,upLeft,upRight,2,rew_low,z,,,,,0,94,94,72,,,0.4,0.7,exp,z,1,7.16,-7.16,-10.14,0,10.14,0,-7.16,-7.16,-7.16,7.16,7.16,7.16,4,144,30,1334,0.8353736000135541,94,95,3,RL,1,M,29,R,2025-04-10_09h05.30.032,RewSL_RL_EEG,
ping,lowB,downRight,DOWN,red,r,lowA,Stimuli\red_bar1.png,Stimuli\red_bar1.png,Stimuli\ping.png,midLeft,high,midRight,lowC,downLeft,upLeft,upRight,2,rew_low,m,,,,,0,95,95,54,,,0.6,0.7,exp,z,0,7.16,-7.16,-10.14,0,10.14,0,-7.16,-7.16,-7.16,7.16,7.16,7.16,4,244,30,1334,0.8392906000080984,95,96,3,RL,1,M,29,R,2025-04-10_09h05.30.032,RewSL_RL_EEG,
ping,lowC,downLeft,UP,green,r,lowA,Stimuli\green_bar1.png,Stimuli\green_bar1.png,Stimuli\ping.png,midLeft,lowB,downRight,high,midRight,upLeft,upRight,2,rew_low,z,,,,,0,96,96,93,,,0.4,0.7,exp,z,1,-7.16,-7.16,-10.14,0,7.16,-7.16,10.14,0,-7.16,7.16,7.16,7.16,4,134,30,1335,1.0283928000135347,96,97,3,RL,1,M,29,R,2025-04-10_09h05.30.032,RewSL_RL_EEG,
ping,high,midRight,UP,green,r,lowA,Stimuli\green_bar1.png,Stimuli\green_bar1.png,Stimuli\ping.png,midLeft,lowB,downRight,lowC,downLeft,upLeft,upRight,2,rew_high,z,,,,,0,97,97,5,,,0.6,0.6,exp,m,0,10.14,0,-10.14,0,7.16,-7.16,-7.16,-7.16,-7.16,7.16,7.16,7.16,4,124,31,1335,1.1440944999922067,97,98,3,RL,1,M,29,R,2025-04-10_09h05.30.032,RewSL_RL_EEG,
ping,high,midRight,UP,red,r,lowA,Stimuli\red_bar1.png,Stimuli\red_bar1.png,Stimuli\ping.png,midLeft,lowB,downRight,lowC,downLeft,upLeft,upRight,2,rew_high,z,,,,,0,98,98,12,,,0.5,0.8,exp,z,1,10.14,0,-10.14,0,7.16,-7.16,-7.16,-7.16,-7.16,7.16,7.16,7.16,4,124,31,1435,0.8596068999904674,98,99,3,RL,1,M,29,R,2025-04-10_09h05.30.032,RewSL_RL_EEG,
ping,lowC,downLeft,DOWN,green,r,lowA,Stimuli\green_bar1.png,Stimuli\green_bar1.png,Stimuli\ping.png,midLeft,lowB,downRight,high,midRight,upLeft,upRight,2,rew_low,m,,,,,0,99,99,95,,,0.6,0.6,exp,m,1,-7.16,-7.16,-10.14,0,7.16,-7.16,10.14,0,-7.16,7.16,7.16,7.16,4,234,30,1436,1.2567755000200123,99,100,3,RL,1,M,29,R,2025-04-10_09h05.30.032,RewSL_RL_EEG,
ping,high,downLeft,UP,red,r,lowA,Stimuli\red_bar1.png,Stimuli\red_bar1.png,Stimuli\ping.png,downRight,lowB,midLeft,lowC,midRight,upLeft,upRight,3,rew_high,z,,,,,0,0,0,4,,,0.5,0.7,exp,z,1,-7.16,-7.16,7.16,-7.16,-10.14,0,10.14,0,-7.16,7.16,7.16,7.16,6,136,31,1536,0.6762331000063568,100,101,3,RL,1,M,29,R,2025-04-10_09h05.30.032,RewSL_RL_EEG,
ping,lowC,midRight,DOWN,green,r,lowA,Stimuli\green_bar1.png,Stimuli\green_bar1.png,Stimuli\ping.png,downRight,lowB,midLeft,high,downLeft,upLeft,upRight,3,rew_low,m,,,,,0,1,1,99,,,0.5,0.7,exp,m,1,10.14,0,7.16,-7.16,-10.14,0,-7.16,-7.16,-7.16,7.16,7.16,7.16,6,226,30,1537,0.6899601000186522,101,102,3,RL,1,M,29,R,2025-04-10_09h05.30.032,RewSL_RL_EEG,
ping,lowB,midLeft,UP,red,l,lowA,Stimuli\red_bar1.png,Stimuli\red_bar1.png,Stimuli\ping.png,downRight,high,downLeft,lowC,midRight,upLeft,upRight,3,rew_low,z,,,,,0,2,2,72,,,0.4,0.8,exp,z,1,-10.14,0,7.16,-7.16,-7.16,-7.16,10.14,0,-7.16,7.16,7.16,7.16,6,116,30,1538,0.681516599986935,102,103,3,RL,1,M,29,R,2025-04-10_09h05.30.032,RewSL_RL_EEG,
ping,lowC,midRight,UP,green,r,lowA,Stimuli\green_bar1.png,Stimuli\green_bar1.png,Stimuli\ping.png,downRight,lowB,midLeft,high,downLeft,upLeft,upRight,3,rew_low,z,,,,,0,3,3,77,,,0.4,0.7,exp,m,0,10.14,0,7.16,-7.16,-10.14,0,-7.16,-7.16,-7.16,7.16,7.16,7.16,6,126,30,1538,0.8190864000061993,103,104,3,RL,1,M,29,R,2025-04-10_09h05.30.032,RewSL_RL_EEG,
ping,lowB,midLeft,DOWN,green,l,lowA,Stimuli\green_bar1.png,Stimuli\green_bar1.png,Stimuli\ping.png,downRight,high,downLeft,lowC,midRight,upLeft,upRight,3,rew_low,m,,,,,0,4,4,67,,,0.5,0.6,exp,m,1,-10.14,0,7.16,-7.16,-7.16,-7.16,10.14,0,-7.16,7.16,7.16,7.16,6,216,30,1539,0.8440870000049472,104,105,3,RL,1,M,29,R,2025-04-10_09h05.30.032,RewSL_RL_EEG,
ping,lowB,midLeft,DOWN,green,l,lowA,Stimuli\green_bar1.png,Stimuli\green_bar1.png,Stimuli\ping.png,downRight,high,downLeft,lowC,midRight,upLeft,upRight,3,rew_low,m,,,,,0,5,5,51,,,0.4,0.7,exp,m,1,-10.14,0,7.16,-7.16,-7.16,-7.16,10.14,0,-7.16,7.16,7.16,7.16,6,216,30,1540,0.8684775999863632,105,106,3,RL,1,M,29,R,2025-04-10_09h05.30.032,RewSL_RL_EEG,
ping,lowA,downRight,UP,green,l,high,Stimuli\green_bar1.png,Stimuli\green_bar1.png,Stimuli\ping.png,downLeft,lowB,midLeft,lowC,midRight,upLeft,upRight,3,rew_low,z,,,,,0,6,6,41,,,0.5,0.7,exp,m,0,7.16,-7.16,-7.16,-7.16,-10.14,0,10.14,0,-7.16,7.16,7.16,7.16,6,146,30,1540,1.072964499995578,106,107,3,RL,1,M,29,R,2025-04-10_09h05.30.032,RewSL_RL_EEG,
ping,high,downLeft,DOWN,red,r,lowA,Stimuli\red_bar1.png,Stimuli\red_bar1.png,Stimuli\ping.png,downRight,lowB,midLeft,lowC,midRight,upLeft,upRight,3,rew_high,m,,,,,0,7,7,6,,,0.5,0.7,exp,m,1,-7.16,-7.16,7.16,-7.16,-10.14,0,10.14,0,-7.16,7.16,7.16,7.16,6,236,31,1640,1.047782300011022,107,108,3,RL,1,M,29,R,2025-04-10_09h05.30.032,RewSL_RL_EEG,
ping,lowA,downRight,UP,green,l,high,Stimuli\green_bar1.png,Stimuli\green_bar1.png,Stimuli\ping.png,downLeft,lowB,midLeft,lowC,midRight,upLeft,upRight,3,rew_low,z,,,,,0,8,8,49,,,0.4,0.7,exp,z,1,7.16,-7.16,-7.16,-7.16,-10.14,0,10.14,0,-7.16,7.16,7.16,7.16,6,146,30,1641,0.8974600000074133,108,109,3,RL,1,M,29,R,2025-04-10_09h05.30.032,RewSL_RL_EEG,
ping,high,downLeft,DOWN,red,r,lowA,Stimuli\red_bar1.png,Stimuli\red_bar1.png,Stimuli\ping.png,downRight,lowB,midLeft,lowC,midRight,upLeft,upRight,3,rew_high,m,,,,,0,9,9,22,,,0.5,0.7,exp,z,0,-7.16,-7.16,7.16,-7.16,-10.14,0,10.14,0,-7.16,7.16,7.16,7.16,6,236,31,1641,0.9561715999734588,109,110,3,RL,1,M,29,R,2025-04-10_09h05.30.032,RewSL_RL_EEG,
ping,lowB,midLeft,UP,red,l,lowA,Stimuli\red_bar1.png,Stimuli\red_bar1.png,Stimuli\ping.png,downRight,high,downLeft,lowC,midRight,upLeft,upRight,3,rew_low,z,,,,,0,10,10,64,,,0.6,0.7,exp,z,1,-10.14,0,7.16,-7.16,-7.16,-7.16,10.14,0,-7.16,7.16,7.16,7.16,6,116,30,1642,0.6058107999851927,110,111,3,RL,1,M,29,R,2025-04-10_09h05.30.032,RewSL_RL_EEG,
ping,high,downLeft,DOWN,red,r,lowA,Stimuli\red_bar1.png,Stimuli\red_bar1.png,Stimuli\ping.png,downRight,lowB,midLeft,lowC,midRight,upLeft,upRight,3,rew_high,m,,,,,0,11,11,14,,,0.5,0.7,exp,m,1,-7.16,-7.16,7.16,-7.16,-10.14,0,10.14,0,-7.16,7.16,7.16,7.16,6,236,31,1742,1.1100818999984767,111,112,3,RL,1,M,29,R,2025-04-10_09h05.30.032,RewSL_RL_EEG,
ping,lowA,downRight,DOWN,green,r,high,Stimuli\green_bar1.png,Stimuli\green_bar1.png,Stimuli\ping.png,downLeft,lowB,midLeft,lowC,midRight,upLeft,upRight,3,rew_low,m,,,,,0,12,12,47,,,0.5,0.7,exp,m,1,7.16,-7.16,-7.16,-7.16,-10.14,0,10.14,0,-7.16,7.16,7.16,7.16,6,246,30,1743,0.9524824999971315,112,113,3,RL,1,M,29,R,2025-04-10_09h05.30.032,RewSL_RL_EEG,
ping,high,downLeft,DOWN,green,l,lowA,Stimuli\green_bar1.png,Stimuli\green_bar1.png,Stimuli\ping.png,downRight,lowB,midLeft,lowC,midRight,upLeft,upRight,3,rew_high,m,,,,,0,13,13,3,,,0.5,0.7,exp,z,0,-7.16,-7.16,7.16,-7.16,-10.14,0,10.14,0,-7.16,7.16,7.16,7.16,6,236,31,1743,0.9482751000032295,113,114,3,RL,1,M,29,R,2025-04-10_09h05.30.032,RewSL_RL_EEG,
ping,lowB,midLeft,DOWN,green,l,lowA,Stimuli\green_bar1.png,Stimuli\green_bar1.png,Stimuli\ping.png,downRight,high,downLeft,lowC,midRight,upLeft,upRight,3,rew_low,m,,,,,0,14,14,59,,,0.5,0.8,exp,m,1,-10.14,0,7.16,-7.16,-7.16,-7.16,10.14,0,-7.16,7.16,7.16,7.16,6,216,30,1744,0.9684926999907475,114,115,3,RL,1,M,29,R,2025-04-10_09h05.30.032,RewSL_RL_EEG,
ping,lowA,downRight,UP,red,l,high,Stimuli\red_bar1.png,Stimuli\red_bar1.png,Stimuli\ping.png,downLeft,lowB,midLeft,lowC,midRight,upLeft,upRight,3,rew_low,z,,,,,0,15,15,40,,,0.6,0.7,exp,m,0,7.16,-7.16,-7.16,-7.16,-10.14,0,10.14,0,-7.16,7.16,7.16,7.16,6,146,30,1744,0.6853817999945022,115,116,3,RL,1,M,29,R,2025-04-10_09h05.30.032,RewSL_RL_EEG,
ping,lowC,midRight,DOWN,red,l,lowA,Stimuli\red_bar1.png,Stimuli\red_bar1.png,Stimuli\ping.png,downRight,lowB,midLeft,high,downLeft,upLeft,upRight,3,rew_low,m,,,,,0,16,16,82,,,0.5,0.6,exp,m,1,10.14,0,7.16,-7.16,-10.14,0,-7.16,-7.16,-7.16,7.16,7.16,7.16,6,226,30,1745,0.5886924999940675,116,117,3,RL,1,M,29,R,2025-04-10_09h05.30.032,RewSL_RL_EEG,
ping,lowC,midRight,UP,green,r,lowA,Stimuli\green_bar1.png,Stimuli\green_bar1.png,Stimuli\ping.png,downRight,lowB,midLeft,high,downLeft,upLeft,upRight,3,rew_low,z,,,,,0,17,17,93,,,0.5,0.8,exp,m,0,10.14,0,7.16,-7.16,-10.14,0,-7.16,-7.16,-7.16,7.16,7.16,7.16,6,126,30,1745,0.7564904000028037,117,118,3,RL,1,M,29,R,2025-04-10_09h05.30.032,RewSL_RL_EEG,
ping,lowC,midRight,UP,red,l,lowA,Stimuli\red_bar1.png,Stimuli\red_bar1.png,Stimuli\ping.png,downRight,lowB,midLeft,high,downLeft,upLeft,upRight,3,rew_low,z,,,,,0,18,18,80,,,0.4,0.7,exp,z,1,10.14,0,7.16,-7.16,-10.14,0,-7.16,-7.16,-7.16,7.16,7.16,7.16,6,126,30,1746,0.6437837999837939,118,119,3,RL,1,M,29,R,2025-04-10_09h05.30.032,RewSL_RL_EEG,
ping,lowA,downRight,DOWN,green,l,high,Stimuli\green_bar1.png,Stimuli\green_bar1.png,Stimuli\ping.png,downLeft,lowB,midLeft,lowC,midRight,upLeft,upRight,3,rew_low,m,,,,,0,19,19,43,,,0.5,0.7,exp,m,1,7.16,-7.16,-7.16,-7.16,-10.14,0,10.14,0,-7.16,7.16,7.16,7.16,6,246,30,1747,0.877320100000361,119,120,3,RL,1,M,29,R,2025-04-10_09h05.30.032,RewSL_RL_EEG,
ping,lowC,midRight,DOWN,red,r,lowA,Stimuli\red_bar1.png,Stimuli\red_bar1.png,Stimuli\ping.png,downRight,lowB,midLeft,high,downLeft,upLeft,upRight,3,rew_low,m,,,,,0,20,20,94,,,0.6,0.7,exp,z,0,10.14,0,7.16,-7.16,-10.14,0,-7.16,-7.16,-7.16,7.16,7.16,7.16,6,226,30,1747,0.8183397999964654,120,121,3,RL,1,M,29,R,2025-04-10_09h05.30.032,RewSL_RL_EEG,
ping,lowA,downRight,DOWN,red,l,high,Stimuli\red_bar1.png,Stimuli\red_bar1.png,Stimuli\ping.png,downLeft,lowB,midLeft,lowC,midRight,upLeft,upRight,3,rew_low,m,,,,,0,21,21,42,,,0.6,0.7,exp,m,1,7.16,-7.16,-7.16,-7.16,-10.14,0,10.14,0,-7.16,7.16,7.16,7.16,6,246,30,1748,1.0606285000103526,121,122,3,RL,1,M,29,R,2025-04-10_09h05.30.032,RewSL_RL_EEG,
ping,lowB,midLeft,UP,green,r,lowA,Stimuli\green_bar1.png,Stimuli\green_bar1.png,Stimuli\ping.png,downRight,high,downLeft,lowC,midRight,upLeft,upRight,3,rew_low,z,,,,,0,22,22,69,,,0.6,0.6,exp,m,0,-10.14,0,7.16,-7.16,-7.16,-7.16,10.14,0,-7.16,7.16,7.16,7.16,6,116,30,1748,0.8478623000264633,122,123,3,RL,1,M,29,R,2025-04-10_09h05.30.032,RewSL_RL_EEG,
ping,lowC,midRight,DOWN,red,r,lowA,Stimuli\red_bar1.png,Stimuli\red_bar1.png,Stimuli\ping.png,downRight,lowB,midLeft,high,downLeft,upLeft,upRight,3,rew_low,m,,,,,0,23,23,98,,,0.4,0.7,exp,m,1,10.14,0,7.16,-7.16,-10.14,0,-7.16,-7.16,-7.16,7.16,7.16,7.16,6,226,30,1749,0.6057558999746107,123,124,3,RL,1,M,29,R,2025-04-10_09h05.30.032,RewSL_RL_EEG,
ping,lowC,midRight,DOWN,green,r,lowA,Stimuli\green_bar1.png,Stimuli\green_bar1.png,Stimuli\ping.png,downRight,lowB,midLeft,high,downLeft,upLeft,upRight,3,rew_low,m,,,,,0,24,24,79,,,0.4,0.7,exp,m,1,10.14,0,7.16,-7.16,-10.14,0,-7.16,-7.16,-7.16,7.16,7.16,7.16,6,226,30,1750,0.7895918999856804,124,125,3,RL,1,M,29,R,2025-04-10_09h05.30.032,RewSL_RL_EEG,
ping,lowA,downRight,DOWN,red,l,high,Stimuli\red_bar1.png,Stimuli\red_bar1.png,Stimuli\ping.png,downLeft,lowB,midLeft,lowC,midRight,upLeft,upRight,3,rew_low,m,,,,,0,25,25,34,,,0.5,0.7,exp,m,1,7.16,-7.16,-7.16,-7.16,-10.14,0,10.14,0,-7.16,7.16,7.16,7.16,6,246,30,1751,0.5988273000111803,125,126,3,RL,1,M,29,R,2025-04-10_09h05.30.032,RewSL_RL_EEG,
ping,lowC,midRight,UP,red,r,lowA,Stimuli\red_bar1.png,Stimuli\red_bar1.png,Stimuli\ping.png,downRight,lowB,midLeft,high,downLeft,upLeft,upRight,3,rew_low,z,,,,,0,26,26,76,,,0.6,0.7,exp,z,1,10.14,0,7.16,-7.16,-10.14,0,-7.16,-7.16,-7.16,7.16,7.16,7.16,6,126,30,1752,0.9561071000061929,126,127,3,RL,1,M,29,R,2025-04-10_09h05.30.032,RewSL_RL_EEG,
ping,high,downLeft,DOWN,red,l,lowA,Stimuli\red_bar1.png,Stimuli\red_bar1.png,Stimuli\ping.png,downRight,lowB,midLeft,lowC,midRight,upLeft,upRight,3,rew_high,m,,,,,0,27,27,10,,,0.5,0.8,exp,z,0,-7.16,-7.16,7.16,-7.16,-10.14,0,10.14,0,-7.16,7.16,7.16,7.16,6,236,31,1752,0.6604060000099707,127,128,3,RL,1,M,29,R,2025-04-10_09h05.30.032,RewSL_RL_EEG,
ping,lowB,midLeft,UP,red,r,lowA,Stimuli\red_bar1.png,Stimuli\red_bar1.png,Stimuli\ping.png,downRight,high,downLeft,lowC,midRight,upLeft,upRight,3,rew_low,z,,,,,0,28,28,68,,,0.6,0.7,exp,z,1,-10.14,0,7.16,-7.16,-7.16,-7.16,10.14,0,-7.16,7.16,7.16,7.16,6,116,30,1753,0.797320799989393,128,129,3,RL,1,M,29,R,2025-04-10_09h05.30.032,RewSL_RL_EEG,
ping,lowC,midRight,UP,red,r,lowA,Stimuli\red_bar1.png,Stimuli\red_bar1.png,Stimuli\ping.png,downRight,lowB,midLeft,high,downLeft,upLeft,upRight,3,rew_low,z,,,,,0,29,29,92,,,0.6,0.6,exp,None,0,10.14,0,7.16,-7.16,-10.14,0,-7.16,-7.16,-7.16,7.16,7.16,7.16,6,126,30,1753,,129,130,3,RL,1,M,29,R,2025-04-10_09h05.30.032,RewSL_RL_EEG,
ping,lowB,midLeft,DOWN,red,l,lowA,Stimuli\red_bar1.png,Stimuli\red_bar1.png,Stimuli\ping.png,downRight,high,downLeft,lowC,midRight,upLeft,upRight,3,rew_low,m,,,,,0,30,30,66,,,0.5,0.8,exp,m,1,-10.14,0,7.16,-7.16,-7.16,-7.16,10.14,0,-7.16,7.16,7.16,7.16,6,216,30,1754,0.9184672000119463,130,131,3,RL,1,M,29,R,2025-04-10_09h05.30.032,RewSL_RL_EEG,
ping,lowA,downRight,UP,red,l,high,Stimuli\red_bar1.png,Stimuli\red_bar1.png,Stimuli\ping.png,downLeft,lowB,midLeft,lowC,midRight,upLeft,upRight,3,rew_low,z,,,,,0,31,31,48,,,0.4,0.7,exp,z,1,7.16,-7.16,-7.16,-7.16,-10.14,0,10.14,0,-7.16,7.16,7.16,7.16,6,146,30,1755,0.8064696000074036,131,132,3,RL,1,M,29,R,2025-04-10_09h05.30.032,RewSL_RL_EEG,
ping,lowA,downRight,UP,red,l,high,Stimuli\red_bar1.png,Stimuli\red_bar1.png,Stimuli\ping.png,downLeft,lowB,midLeft,lowC,midRight,upLeft,upRight,3,rew_low,z,,,,,0,32,32,32,,,0.5,0.8,exp,z,1,7.16,-7.16,-7.16,-7.16,-10.14,0,10.14,0,-7.16,7.16,7.16,7.16,6,146,30,1756,0.730377400002908,132,133,3,RL,1,M,29,R,2025-04-10_09h05.30.032,RewSL_RL_EEG,
ping,lowC,midRight,UP,green,l,lowA,Stimuli\green_bar1.png,Stimuli\green_bar1.png,Stimuli\ping.png,downRight,lowB,midLeft,high,downLeft,upLeft,upRight,3,rew_low,z,,,,,0,33,33,97,,,0.5,0.6,exp,m,0,10.14,0,7.16,-7.16,-10.14,0,-7.16,-7.16,-7.16,7.16,7.16,7.16,6,126,30,1756,0.8775681999977678,133,134,3,RL,1,M,29,R,2025-04-10_09h05.30.032,RewSL_RL_EEG,
ping,high,downLeft,DOWN,green,r,lowA,Stimuli\green_bar1.png,Stimuli\green_bar1.png,Stimuli\ping.png,downRight,lowB,midLeft,lowC,midRight,upLeft,upRight,3,rew_high,m,,,,,0,34,34,15,,,0.5,0.7,exp,z,0,-7.16,-7.16,7.16,-7.16,-10.14,0,10.14,0,-7.16,7.16,7.16,7.16,6,236,31,1756,0.801774799998384,134,135,3,RL,1,M,29,R,2025-04-10_09h05.30.032,RewSL_RL_EEG,
ping,lowC,midRight,DOWN,red,r,lowA,Stimuli\red_bar1.png,Stimuli\red_bar1.png,Stimuli\ping.png,downRight,lowB,midLeft,high,downLeft,upLeft,upRight,3,rew_low,m,,,,,0,35,35,86,,,0.4,0.7,exp,m,1,10.14,0,7.16,-7.16,-10.14,0,-7.16,-7.16,-7.16,7.16,7.16,7.16,6,226,30,1757,0.8771835999796167,135,136,3,RL,1,M,29,R,2025-04-10_09h05.30.032,RewSL_RL_EEG,
ping,high,downLeft,UP,green,l,lowA,Stimuli\green_bar1.png,Stimuli\green_bar1.png,Stimuli\ping.png,downRight,lowB,midLeft,lowC,midRight,upLeft,upRight,3,rew_high,z,,,,,0,36,36,9,,,0.6,0.8,exp,z,1,-7.16,-7.16,7.16,-7.16,-10.14,0,10.14,0,-7.16,7.16,7.16,7.16,6,136,31,1857,0.7692468000168446,136,137,3,RL,1,M,29,R,2025-04-10_09h05.30.032,RewSL_RL_EEG,
ping,lowC,midRight,DOWN,green,l,lowA,Stimuli\green_bar1.png,Stimuli\green_bar1.png,Stimuli\ping.png,downRight,lowB,midLeft,high,downLeft,upLeft,upRight,3,rew_low,m,,,,,0,37,37,75,,,0.6,0.6,exp,m,1,10.14,0,7.16,-7.16,-10.14,0,-7.16,-7.16,-7.16,7.16,7.16,7.16,6,226,30,1858,0.7686261999770068,137,138,3,RL,1,M,29,R,2025-04-10_09h05.30.032,RewSL_RL_EEG,
ping,high,downLeft,UP,green,l,lowA,Stimuli\green_bar1.png,Stimuli\green_bar1.png,Stimuli\ping.png,downRight,lowB,midLeft,lowC,midRight,upLeft,upRight,3,rew_high,z,,,,,0,38,38,17,,,0.5,0.7,exp,m,0,-7.16,-7.16,7.16,-7.16,-10.14,0,10.14,0,-7.16,7.16,7.16,7.16,6,136,31,1858,0.886075799993705,138,139,3,RL,1,M,29,R,2025-04-10_09h05.30.032,RewSL_RL_EEG,
ping,lowB,midLeft,DOWN,red,l,lowA,Stimuli\red_bar1.png,Stimuli\red_bar1.png,Stimuli\ping.png,downRight,high,downLeft,lowC,midRight,upLeft,upRight,3,rew_low,m,,,,,0,39,39,50,,,0.4,0.7,exp,m,1,-10.14,0,7.16,-7.16,-7.16,-7.16,10.14,0,-7.16,7.16,7.16,7.16,6,216,30,1859,0.9353950999793597,139,140,3,RL,1,M,29,R,2025-04-10_09h05.30.032,RewSL_RL_EEG,
ping,lowC,midRight,DOWN,red,l,lowA,Stimuli\red_bar1.png,Stimuli\red_bar1.png,Stimuli\ping.png,downRight,lowB,midLeft,high,downLeft,upLeft,upRight,3,rew_low,m,,,,,0,40,40,90,,,0.5,0.7,exp,m,1,10.14,0,7.16,-7.16,-10.14,0,-7.16,-7.16,-7.16,7.16,7.16,7.16,6,226,30,1860,0.8776160000124946,140,141,3,RL,1,M,29,R,2025-04-10_09h05.30.032,RewSL_RL_EEG,
ping,lowC,midRight,UP,green,l,lowA,Stimuli\green_bar1.png,Stimuli\green_bar1.png,Stimuli\ping.png,downRight,lowB,midLeft,high,downLeft,upLeft,upRight,3,rew_low,z,,,,,0,41,41,89,,,0.6,0.6,exp,z,1,10.14,0,7.16,-7.16,-10.14,0,-7.16,-7.16,-7.16,7.16,7.16,7.16,6,126,30,1861,0.823368900018977,141,142,3,RL,1,M,29,R,2025-04-10_09h05.30.032,RewSL_RL_EEG,
ping,lowC,midRight,UP,green,r,lowA,Stimuli\green_bar1.png,Stimuli\green_bar1.png,Stimuli\ping.png,downRight,lowB,midLeft,high,downLeft,upLeft,upRight,3,rew_low,z,,,,,0,42,42,85,,,0.6,0.6,exp,m,0,10.14,0,7.16,-7.16,-10.14,0,-7.16,-7.16,-7.16,7.16,7.16,7.16,6,126,30,1861,1.0905609000183176,142,143,3,RL,1,M,29,R,2025-04-10_09h05.30.032,RewSL_RL_EEG,
ping,lowB,midLeft,DOWN,red,r,lowA,Stimuli\red_bar1.png,Stimuli\red_bar1.png,Stimuli\ping.png,downRight,high,downLeft,lowC,midRight,upLeft,upRight,3,rew_low,m,,,,,0,43,43,70,,,0.6,0.7,exp,m,1,-10.14,0,7.16,-7.16,-7.16,-7.16,10.14,0,-7.16,7.16,7.16,7.16,6,216,30,1862,0.6189215999911539,143,144,3,RL,1,M,29,R,2025-04-10_09h05.30.032,RewSL_RL_EEG,
ping,lowB,midLeft,UP,red,r,lowA,Stimuli\red_bar1.png,Stimuli\red_bar1.png,Stimuli\ping.png,downRight,high,downLeft,lowC,midRight,upLeft,upRight,3,rew_low,z,,,,,0,44,44,52,,,0.5,0.7,exp,z,1,-10.14,0,7.16,-7.16,-7.16,-7.16,10.14,0,-7.16,7.16,7.16,7.16,6,116,30,1863,0.6309848000237253,144,145,3,RL,1,M,29,R,2025-04-10_09h05.30.032,RewSL_RL_EEG,
ping,high,downLeft,UP,green,r,lowA,Stimuli\green_bar1.png,Stimuli\green_bar1.png,Stimuli\ping.png,downRight,lowB,midLeft,lowC,midRight,upLeft,upRight,3,rew_high,z,,,,,0,45,45,13,,,0.5,0.7,exp,m,0,-7.16,-7.16,7.16,-7.16,-10.14,0,10.14,0,-7.16,7.16,7.16,7.16,6,136,31,1863,1.0104671000153758,145,146,3,RL,1,M,29,R,2025-04-10_09h05.30.032,RewSL_RL_EEG,
ping,lowA,downRight,UP,red,r,high,Stimuli\red_bar1.png,Stimuli\red_bar1.png,Stimuli\ping.png,downLeft,lowB,midLeft,lowC,midRight,upLeft,upRight,3,rew_low,z,,,,,0,46,46,28,,,0.4,0.7,exp,m,0,7.16,-7.16,-7.16,-7.16,-10.14,0,10.14,0,-7.16,7.16,7.16,7.16,6,146,30,1863,0.9598217999737244,146,147,3,RL,1,M,29,R,2025-04-10_09h05.30.032,RewSL_RL_EEG,
ping,high,downLeft,UP,red,l,lowA,Stimuli\red_bar1.png,Stimuli\red_bar1.png,Stimuli\ping.png,downRight,lowB,midLeft,lowC,midRight,upLeft,upRight,3,rew_high,z,,,,,0,47,47,0,,,0.4,0.7,exp,m,0,-7.16,-7.16,7.16,-7.16,-10.14,0,10.14,0,-7.16,7.16,7.16,7.16,6,136,31,1863,0.6069723999826238,147,148,3,RL,1,M,29,R,2025-04-10_09h05.30.032,RewSL_RL_EEG,
ping,lowC,midRight,DOWN,green,l,lowA,Stimuli\green_bar1.png,Stimuli\green_bar1.png,Stimuli\ping.png,downRight,lowB,midLeft,high,downLeft,upLeft,upRight,3,rew_low,m,,,,,0,48,48,91,,,0.5,0.7,exp,m,1,10.14,0,7.16,-7.16,-10.14,0,-7.16,-7.16,-7.16,7.16,7.16,7.16,6,226,30,1864,0.7268193999771029,148,149,3,RL,1,M,29,R,2025-04-10_09h05.30.032,RewSL_RL_EEG,
ping,lowA,downRight,DOWN,red,r,high,Stimuli\red_bar1.png,Stimuli\red_bar1.png,Stimuli\ping.png,downLeft,lowB,midLeft,lowC,midRight,upLeft,upRight,3,rew_low,m,,,,,0,49,49,30,,,0.5,0.8,exp,z,0,7.16,-7.16,-7.16,-7.16,-10.14,0,10.14,0,-7.16,7.16,7.16,7.16,6,246,30,1864,0.943033599993214,149,150,3,RL,1,M,29,R,2025-04-10_09h05.30.032,RewSL_RL_EEG,
ping,lowA,downRight,UP,green,r,high,Stimuli\green_bar1.png,Stimuli\green_bar1.png,Stimuli\ping.png,downLeft,lowB,midLeft,lowC,midRight,upLeft,upRight,3,rew_low,z,,,,,0,50,50,37,,,0.4,0.7,exp,m,0,7.16,-7.16,-7.16,-7.16,-10.14,0,10.14,0,-7.16,7.16,7.16,7.16,6,146,30,1864,0.8718687000218779,150,151,3,RL,1,M,29,R,2025-04-10_09h05.30.032,RewSL_RL_EEG,
ping,lowA,downRight,DOWN,green,l,high,Stimuli\green_bar1.png,Stimuli\green_bar1.png,Stimuli\ping.png,downLeft,lowB,midLeft,lowC,midRight,upLeft,upRight,3,rew_low,m,,,,,0,51,51,27,,,0.6,0.7,exp,m,1,7.16,-7.16,-7.16,-7.16,-10.14,0,10.14,0,-7.16,7.16,7.16,7.16,6,246,30,1865,0.6354535999998916,151,152,3,RL,1,M,29,R,2025-04-10_09h05.30.032,RewSL_RL_EEG,
ping,lowA,downRight,DOWN,red,l,high,Stimuli\red_bar1.png,Stimuli\red_bar1.png,Stimuli\ping.png,downLeft,lowB,midLeft,lowC,midRight,upLeft,upRight,3,rew_low,m,,,,,0,52,52,26,,,0.4,0.8,exp,m,1,7.16,-7.16,-7.16,-7.16,-10.14,0,10.14,0,-7.16,7.16,7.16,7.16,6,246,30,1866,0.643878400005633,152,153,3,RL,1,M,29,R,2025-04-10_09h05.30.032,RewSL_RL_EEG,
ping,lowC,midRight,UP,green,l,lowA,Stimuli\green_bar1.png,Stimuli\green_bar1.png,Stimuli\ping.png,downRight,lowB,midLeft,high,downLeft,upLeft,upRight,3,rew_low,z,,,,,0,53,53,81,,,0.5,0.8,exp,z,1,10.14,0,7.16,-7.16,-10.14,0,-7.16,-7.16,-7.16,7.16,7.16,7.16,6,126,30,1867,0.8726320000132546,153,154,3,RL,1,M,29,R,2025-04-10_09h05.30.032,RewSL_RL_EEG,
ping,lowA,downRight,UP,green,l,high,Stimuli\green_bar1.png,Stimuli\green_bar1.png,Stimuli\ping.png,downLeft,lowB,midLeft,lowC,midRight,upLeft,upRight,3,rew_low,z,,,,,0,54,54,25,,,0.4,0.7,exp,m,0,7.16,-7.16,-7.16,-7.16,-10.14,0,10.14,0,-7.16,7.16,7.16,7.16,6,146,30,1867,0.8185376999899745,154,155,3,RL,1,M,29,R,2025-04-10_09h05.30.032,RewSL_RL_EEG,
ping,high,downLeft,UP,green,r,lowA,Stimuli\green_bar1.png,Stimuli\green_bar1.png,Stimuli\ping.png,downRight,lowB,midLeft,lowC,midRight,upLeft,upRight,3,rew_high,z,,,,,0,55,55,21,,,0.4,0.7,exp,m,0,-7.16,-7.16,7.16,-7.16,-10.14,0,10.14,0,-7.16,7.16,7.16,7.16,6,136,31,1867,0.910311699990416,155,156,3,RL,1,M,29,R,2025-04-10_09h05.30.032,RewSL_RL_EEG,
ping,lowB,midLeft,DOWN,red,l,lowA,Stimuli\red_bar1.png,Stimuli\red_bar1.png,Stimuli\ping.png,downRight,high,downLeft,lowC,midRight,upLeft,upRight,3,rew_low,m,,,,,0,56,56,74,,,0.5,0.7,exp,m,1,-10.14,0,7.16,-7.16,-7.16,-7.16,10.14,0,-7.16,7.16,7.16,7.16,6,216,30,1868,0.5810429999837652,156,157,3,RL,1,M,29,R,2025-04-10_09h05.30.032,RewSL_RL_EEG,
ping,lowA,downRight,DOWN,red,r,high,Stimuli\red_bar1.png,Stimuli\red_bar1.png,Stimuli\ping.png,downLeft,lowB,midLeft,lowC,midRight,upLeft,upRight,3,rew_low,m,,,,,0,57,57,46,,,0.4,0.8,exp,m,1,7.16,-7.16,-7.16,-7.16,-10.14,0,10.14,0,-7.16,7.16,7.16,7.16,6,246,30,1869,0.6735465999809094,157,158,3,RL,1,M,29,R,2025-04-10_09h05.30.032,RewSL_RL_EEG,
ping,lowB,midLeft,DOWN,red,r,lowA,Stimuli\red_bar1.png,Stimuli\red_bar1.png,Stimuli\ping.png,downRight,high,downLeft,lowC,midRight,upLeft,upRight,3,rew_low,m,,,,,0,58,58,62,,,0.5,0.7,exp,m,1,-10.14,0,7.16,-7.16,-7.16,-7.16,10.14,0,-7.16,7.16,7.16,7.16,6,216,30,1870,0.8444173999887425,158,159,3,RL,1,M,29,R,2025-04-10_09h05.30.032,RewSL_RL_EEG,
ping,high,downLeft,UP,red,l,lowA,Stimuli\red_bar1.png,Stimuli\red_bar1.png,Stimuli\ping.png,downRight,lowB,midLeft,lowC,midRight,upLeft,upRight,3,rew_high,z,,,,,0,59,59,24,,,0.6,0.8,exp,m,0,-7.16,-7.16,7.16,-7.16,-10.14,0,10.14,0,-7.16,7.16,7.16,7.16,6,136,31,1870,0.9687606999941636,159,160,3,RL,1,M,29,R,2025-04-10_09h05.30.032,RewSL_RL_EEG,
ping,high,downLeft,DOWN,red,l,lowA,Stimuli\red_bar1.png,Stimuli\red_bar1.png,Stimuli\ping.png,downRight,lowB,midLeft,lowC,midRight,upLeft,upRight,3,rew_high,m,,,,,0,60,60,18,,,0.6,0.6,exp,z,0,-7.16,-7.16,7.16,-7.16,-10.14,0,10.14,0,-7.16,7.16,7.16,7.16,6,236,31,1870,0.7521413000067696,160,161,3,RL,1,M,29,R,2025-04-10_09h05.30.032,RewSL_RL_EEG,
ping,high,downLeft,DOWN,green,r,lowA,Stimuli\green_bar1.png,Stimuli\green_bar1.png,Stimuli\ping.png,downRight,lowB,midLeft,lowC,midRight,upLeft,upRight,3,rew_high,m,,,,,0,61,61,23,,,0.5,0.7,exp,z,0,-7.16,-7.16,7.16,-7.16,-10.14,0,10.14,0,-7.16,7.16,7.16,7.16,6,236,31,1870,0.7781809000007343,161,162,3,RL,1,M,29,R,2025-04-10_09h05.30.032,RewSL_RL_EEG,
ping,lowB,midLeft,DOWN,green,r,lowA,Stimuli\green_bar1.png,Stimuli\green_bar1.png,Stimuli\ping.png,downRight,high,downLeft,lowC,midRight,upLeft,upRight,3,rew_low,m,,,,,0,62,62,55,,,0.5,0.7,exp,m,1,-10.14,0,7.16,-7.16,-7.16,-7.16,10.14,0,-7.16,7.16,7.16,7.16,6,216,30,1871,0.8360066000022925,162,163,3,RL,1,M,29,R,2025-04-10_09h05.30.032,RewSL_RL_EEG,
ping,lowB,midLeft,UP,green,l,lowA,Stimuli\green_bar1.png,Stimuli\green_bar1.png,Stimuli\ping.png,downRight,high,downLeft,lowC,midRight,upLeft,upRight,3,rew_low,z,,,,,0,63,63,73,,,0.5,0.7,exp,m,0,-10.14,0,7.16,-7.16,-7.16,-7.16,10.14,0,-7.16,7.16,7.16,7.16,6,116,30,1871,0.5938916000013705,163,164,3,RL,1,M,29,R,2025-04-10_09h05.30.032,RewSL_RL_EEG,
ping,high,downLeft,UP,red,r,lowA,Stimuli\red_bar1.png,Stimuli\red_bar1.png,Stimuli\ping.png,downRight,lowB,midLeft,lowC,midRight,upLeft,upRight,3,rew_high,z,,,,,0,64,64,20,,,0.5,0.6,exp,z,1,-7.16,-7.16,7.16,-7.16,-10.14,0,10.14,0,-7.16,7.16,7.16,7.16,6,136,31,1971,1.106327000015881,164,165,3,RL,1,M,29,R,2025-04-10_09h05.30.032,RewSL_RL_EEG,
ping,lowA,downRight,DOWN,green,r,high,Stimuli\green_bar1.png,Stimuli\green_bar1.png,Stimuli\ping.png,downLeft,lowB,midLeft,lowC,midRight,upLeft,upRight,3,rew_low,m,,,,,0,65,65,39,,,0.6,0.7,exp,m,1,7.16,-7.16,-7.16,-7.16,-10.14,0,10.14,0,-7.16,7.16,7.16,7.16,6,246,30,1972,0.9014833999972325,165,166,3,RL,1,M,29,R,2025-04-10_09h05.30.032,RewSL_RL_EEG,
ping,high,downLeft,DOWN,green,l,lowA,Stimuli\green_bar1.png,Stimuli\green_bar1.png,Stimuli\ping.png,downRight,lowB,midLeft,lowC,midRight,upLeft,upRight,3,rew_high,m,,,,,0,66,66,19,,,0.5,0.8,exp,z,0,-7.16,-7.16,7.16,-7.16,-10.14,0,10.14,0,-7.16,7.16,7.16,7.16,6,236,31,1972,1.1600122000090778,166,167,3,RL,1,M,29,R,2025-04-10_09h05.30.032,RewSL_RL_EEG,
ping,lowA,downRight,UP,green,r,high,Stimuli\green_bar1.png,Stimuli\green_bar1.png,Stimuli\ping.png,downLeft,lowB,midLeft,lowC,midRight,upLeft,upRight,3,rew_low,z,,,,,0,67,67,29,,,0.5,0.7,exp,m,0,7.16,-7.16,-7.16,-7.16,-10.14,0,10.14,0,-7.16,7.16,7.16,7.16,6,146,30,1972,0.888727600016864,167,168,3,RL,1,M,29,R,2025-04-10_09h05.30.032,RewSL_RL_EEG,
ping,lowB,midLeft,DOWN,green,r,lowA,Stimuli\green_bar1.png,Stimuli\green_bar1.png,Stimuli\ping.png,downRight,high,downLeft,lowC,midRight,upLeft,upRight,3,rew_low,m,,,,,0,68,68,71,,,0.5,0.7,exp,m,1,-10.14,0,7.16,-7.16,-7.16,-7.16,10.14,0,-7.16,7.16,7.16,7.16,6,216,30,1973,0.7398239999893121,168,169,3,RL,1,M,29,R,2025-04-10_09h05.30.032,RewSL_RL_EEG,
ping,lowA,downRight,UP,red,r,high,Stimuli\red_bar1.png,Stimuli\red_bar1.png,Stimuli\ping.png,downLeft,lowB,midLeft,lowC,midRight,upLeft,upRight,3,rew_low,z,,,,,0,69,69,36,,,0.4,0.7,exp,z,1,7.16,-7.16,-7.16,-7.16,-10.14,0,10.14,0,-7.16,7.16,7.16,7.16,6,146,30,1974,0.9727385000151116,169,170,3,RL,1,M,29,R,2025-04-10_09h05.30.032,RewSL_RL_EEG,
ping,lowC,midRight,UP,red,r,lowA,Stimuli\red_bar1.png,Stimuli\red_bar1.png,Stimuli\ping.png,downRight,lowB,midLeft,high,downLeft,upLeft,upRight,3,rew_low,z,,,,,0,70,70,84,,,0.5,0.8,exp,z,1,10.14,0,7.16,-7.16,-10.14,0,-7.16,-7.16,-7.16,7.16,7.16,7.16,6,126,30,1975,0.7595663999964017,170,171,3,RL,1,M,29,R,2025-04-10_09h05.30.032,RewSL_RL_EEG,
ping,lowB,midLeft,UP,red,r,lowA,Stimuli\red_bar1.png,Stimuli\red_bar1.png,Stimuli\ping.png,downRight,high,downLeft,lowC,midRight,upLeft,upRight,3,rew_low,z,,,,,0,71,71,60,,,0.5,0.6,exp,z,1,-10.14,0,7.16,-7.16,-7.16,-7.16,10.14,0,-7.16,7.16,7.16,7.16,6,116,30,1976,0.9144429000152741,171,172,3,RL,1,M,29,R,2025-04-10_09h05.30.032,RewSL_RL_EEG,
ping,high,downLeft,DOWN,green,l,lowA,Stimuli\green_bar1.png,Stimuli\green_bar1.png,Stimuli\ping.png,downRight,lowB,midLeft,lowC,midRight,upLeft,upRight,3,rew_high,m,,,,,0,72,72,11,,,0.4,0.8,exp,m,1,-7.16,-7.16,7.16,-7.16,-10.14,0,10.14,0,-7.16,7.16,7.16,7.16,6,236,31,2076,1.0356644999992568,172,173,3,RL,1,M,29,R,2025-04-10_09h05.30.032,RewSL_RL_EEG,
ping,lowB,midLeft,UP,red,l,lowA,Stimuli\red_bar1.png,Stimuli\red_bar1.png,Stimuli\ping.png,downRight,high,downLeft,lowC,midRight,upLeft,upRight,3,rew_low,z,,,,,0,73,73,56,,,0.5,0.8,exp,z,1,-10.14,0,7.16,-7.16,-7.16,-7.16,10.14,0,-7.16,7.16,7.16,7.16,6,116,30,2077,0.5973775000020396,173,174,3,RL,1,M,29,R,2025-04-10_09h05.30.032,RewSL_RL_EEG,
ping,lowA,downRight,UP,green,l,high,Stimuli\green_bar1.png,Stimuli\green_bar1.png,Stimuli\ping.png,downLeft,lowB,midLeft,lowC,midRight,upLeft,upRight,3,rew_low,z,,,,,0,74,74,33,,,0.5,0.6,exp,z,1,7.16,-7.16,-7.16,-7.16,-10.14,0,10.14,0,-7.16,7.16,7.16,7.16,6,146,30,2078,1.0724886999814771,174,175,3,RL,1,M,29,R,2025-04-10_09h05.30.032,RewSL_RL_EEG,
ping,lowC,midRight,UP,red,l,lowA,Stimuli\red_bar1.png,Stimuli\red_bar1.png,Stimuli\ping.png,downRight,lowB,midLeft,high,downLeft,upLeft,upRight,3,rew_low,z,,,,,0,75,75,88,,,0.4,0.8,exp,z,1,10.14,0,7.16,-7.16,-10.14,0,-7.16,-7.16,-7.16,7.16,7.16,7.16,6,126,30,2079,0.9474500000069384,175,176,3,RL,1,M,29,R,2025-04-10_09h05.30.032,RewSL_RL_EEG,
ping,lowC,midRight,DOWN,green,r,lowA,Stimuli\green_bar1.png,Stimuli\green_bar1.png,Stimuli\ping.png,downRight,lowB,midLeft,high,downLeft,upLeft,upRight,3,rew_low,m,,,,,0,76,76,87,,,0.5,0.6,exp,m,1,10.14,0,7.16,-7.16,-10.14,0,-7.16,-7.16,-7.16,7.16,7.16,7.16,6,226,30,2080,1.1518235999974422,176,177,3,RL,1,M,29,R,2025-04-10_09h05.30.032,RewSL_RL_EEG,
ping,lowB,midLeft,UP,green,l,lowA,Stimuli\green_bar1.png,Stimuli\green_bar1.png,Stimuli\ping.png,downRight,high,downLeft,lowC,midRight,upLeft,upRight,3,rew_low,z,,,,,0,77,77,65,,,0.5,0.6,exp,z,1,-10.14,0,7.16,-7.16,-7.16,-7.16,10.14,0,-7.16,7.16,7.16,7.16,6,116,30,2081,0.6693542000139132,177,178,3,RL,1,M,29,R,2025-04-10_09h05.30.032,RewSL_RL_EEG,
ping,lowC,midRight,DOWN,red,r,lowA,Stimuli\red_bar1.png,Stimuli\red_bar1.png,Stimuli\ping.png,downRight,lowB,midLeft,high,downLeft,upLeft,upRight,3,rew_low,m,,,,,0,78,78,78,,,0.6,0.8,exp,m,1,10.14,0,7.16,-7.16,-10.14,0,-7.16,-7.16,-7.16,7.16,7.16,7.16,6,226,30,2082,0.7651951999869198,178,179,3,RL,1,M,29,R,2025-04-10_09h05.30.032,RewSL_RL_EEG,
ping,lowB,midLeft,DOWN,red,r,lowA,Stimuli\red_bar1.png,Stimuli\red_bar1.png,Stimuli\ping.png,downRight,high,downLeft,lowC,midRight,upLeft,upRight,3,rew_low,m,,,,,0,79,79,54,,,0.5,0.8,exp,m,1,-10.14,0,7.16,-7.16,-7.16,-7.16,10.14,0,-7.16,7.16,7.16,7.16,6,216,30,2083,0.835876900004223,179,180,3,RL,1,M,29,R,2025-04-10_09h05.30.032,RewSL_RL_EEG,
ping,lowA,downRight,DOWN,green,r,high,Stimuli\green_bar1.png,Stimuli\green_bar1.png,Stimuli\ping.png,downLeft,lowB,midLeft,lowC,midRight,upLeft,upRight,3,rew_low,m,,,,,0,80,80,31,,,0.4,0.6,exp,m,1,7.16,-7.16,-7.16,-7.16,-10.14,0,10.14,0,-7.16,7.16,7.16,7.16,6,246,30,2084,1.1065033999911975,180,181,3,RL,1,M,29,R,2025-04-10_09h05.30.032,RewSL_RL_EEG,
ping,lowA,downRight,UP,green,r,high,Stimuli\green_bar1.png,Stimuli\green_bar1.png,Stimuli\ping.png,downLeft,lowB,midLeft,lowC,midRight,upLeft,upRight,3,rew_low,z,,,,,0,81,81,45,,,0.5,0.6,exp,m,0,7.16,-7.16,-7.16,-7.16,-10.14,0,10.14,0,-7.16,7.16,7.16,7.16,6,146,30,2084,0.8018561999779195,181,182,3,RL,1,M,29,R,2025-04-10_09h05.30.032,RewSL_RL_EEG,
ping,lowC,midRight,DOWN,green,r,lowA,Stimuli\green_bar1.png,Stimuli\green_bar1.png,Stimuli\ping.png,downRight,lowB,midLeft,high,downLeft,upLeft,upRight,3,rew_low,m,,,,,0,82,82,95,,,0.6,0.7,exp,m,1,10.14,0,7.16,-7.16,-10.14,0,-7.16,-7.16,-7.16,7.16,7.16,7.16,6,226,30,2085,0.9678817999956664,182,183,3,RL,1,M,29,R,2025-04-10_09h05.30.032,RewSL_RL_EEG,
ping,high,downLeft,DOWN,red,l,lowA,Stimuli\red_bar1.png,Stimuli\red_bar1.png,Stimuli\ping.png,downRight,lowB,midLeft,lowC,midRight,upLeft,upRight,3,rew_high,m,,,,,0,83,83,2,,,0.4,0.7,exp,m,1,-7.16,-7.16,7.16,-7.16,-10.14,0,10.14,0,-7.16,7.16,7.16,7.16,6,236,31,2185,0.7600747999968007,183,184,3,RL,1,M,29,R,2025-04-10_09h05.30.032,RewSL_RL_EEG,
ping,lowB,midLeft,UP,green,l,lowA,Stimuli\green_bar1.png,Stimuli\green_bar1.png,Stimuli\ping.png,downRight,high,downLeft,lowC,midRight,upLeft,upRight,3,rew_low,z,,,,,0,84,84,57,,,0.5,0.7,exp,z,1,-10.14,0,7.16,-7.16,-7.16,-7.16,10.14,0,-7.16,7.16,7.16,7.16,6,116,30,2186,0.5896047999849543,184,185,3,RL,1,M,29,R,2025-04-10_09h05.30.032,RewSL_RL_EEG,
ping,high,downLeft,UP,green,l,lowA,Stimuli\green_bar1.png,Stimuli\green_bar1.png,Stimuli\ping.png,downRight,lowB,midLeft,lowC,midRight,upLeft,upRight,3,rew_high,z,,,,,0,85,85,1,,,0.5,0.7,exp,m,0,-7.16,-7.16,7.16,-7.16,-10.14,0,10.14,0,-7.16,7.16,7.16,7.16,6,136,31,2186,0.710370500019053,185,186,3,RL,1,M,29,R,2025-04-10_09h05.30.032,RewSL_RL_EEG,
ping,lowB,midLeft,DOWN,green,r,lowA,Stimuli\green_bar1.png,Stimuli\green_bar1.png,Stimuli\ping.png,downRight,high,downLeft,lowC,midRight,upLeft,upRight,3,rew_low,m,,,,,0,86,86,63,,,0.5,0.7,exp,m,1,-10.14,0,7.16,-7.16,-7.16,-7.16,10.14,0,-7.16,7.16,7.16,7.16,6,216,30,2187,0.7812728999997489,186,187,3,RL,1,M,29,R,2025-04-10_09h05.30.032,RewSL_RL_EEG,
ping,high,downLeft,UP,green,r,lowA,Stimuli\green_bar1.png,Stimuli\green_bar1.png,Stimuli\ping.png,downRight,lowB,midLeft,lowC,midRight,upLeft,upRight,3,rew_high,z,,,,,0,87,87,5,,,0.5,0.7,exp,z,1,-7.16,-7.16,7.16,-7.16,-10.14,0,10.14,0,-7.16,7.16,7.16,7.16,6,136,31,2287,0.8231314999866299,187,188,3,RL,1,M,29,R,2025-04-10_09h05.30.032,RewSL_RL_EEG,
ping,lowB,midLeft,UP,green,r,lowA,Stimuli\green_bar1.png,Stimuli\green_bar1.png,Stimuli\ping.png,downRight,high,downLeft,lowC,midRight,upLeft,upRight,3,rew_low,z,,,,,0,88,88,61,,,0.5,0.7,exp,z,1,-10.14,0,7.16,-7.16,-7.16,-7.16,10.14,0,-7.16,7.16,7.16,7.16,6,116,30,2288,0.6396775000030175,188,189,3,RL,1,M,29,R,2025-04-10_09h05.30.032,RewSL_RL_EEG,
ping,lowB,midLeft,DOWN,red,l,lowA,Stimuli\red_bar1.png,Stimuli\red_bar1.png,Stimuli\ping.png,downRight,high,downLeft,lowC,midRight,upLeft,upRight,3,rew_low,m,,,,,0,89,89,58,,,0.4,0.7,exp,m,1,-10.14,0,7.16,-7.16,-7.16,-7.16,10.14,0,-7.16,7.16,7.16,7.16,6,216,30,2289,0.622239799995441,189,190,3,RL,1,M,29,R,2025-04-10_09h05.30.032,RewSL_RL_EEG,
ping,lowA,downRight,DOWN,red,r,high,Stimuli\red_bar1.png,Stimuli\red_bar1.png,Stimuli\ping.png,downLeft,lowB,midLeft,lowC,midRight,upLeft,upRight,3,rew_low,m,,,,,0,90,90,38,,,0.6,0.7,exp,m,1,7.16,-7.16,-7.16,-7.16,-10.14,0,10.14,0,-7.16,7.16,7.16,7.16,6,246,30,2290,0.5976434999902267,190,191,3,RL,1,M,29,R,2025-04-10_09h05.30.032,RewSL_RL_EEG,
ping,high,downLeft,UP,red,r,lowA,Stimuli\red_bar1.png,Stimuli\red_bar1.png,Stimuli\ping.png,downRight,lowB,midLeft,lowC,midRight,upLeft,upRight,3,rew_high,z,,,,,0,91,91,12,,,0.4,0.7,exp,m,0,-7.16,-7.16,7.16,-7.16,-10.14,0,10.14,0,-7.16,7.16,7.16,7.16,6,136,31,2290,0.5779462000064086,191,192,3,RL,1,M,29,R,2025-04-10_09h05.30.032,RewSL_RL_EEG,
ping,lowA,downRight,UP,red,r,high,Stimuli\red_bar1.png,Stimuli\red_bar1.png,Stimuli\ping.png,downLeft,lowB,midLeft,lowC,midRight,upLeft,upRight,3,rew_low,z,,,,,0,92,92,44,,,0.6,0.7,exp,z,1,7.16,-7.16,-7.16,-7.16,-10.14,0,10.14,0,-7.16,7.16,7.16,7.16,6,146,30,2291,0.6734956000000238,192,193,3,RL,1,M,29,R,2025-04-10_09h05.30.032,RewSL_RL_EEG,
ping,lowC,midRight,UP,red,l,lowA,Stimuli\red_bar1.png,Stimuli\red_bar1.png,Stimuli\ping.png,downRight,lowB,midLeft,high,downLeft,upLeft,upRight,3,rew_low,z,,,,,0,93,93,96,,,0.6,0.8,exp,m,0,10.14,0,7.16,-7.16,-10.14,0,-7.16,-7.16,-7.16,7.16,7.16,7.16,6,126,30,2291,0.9434820000024047,193,194,3,RL,1,M,29,R,2025-04-10_09h05.30.032,RewSL_RL_EEG,
ping,lowC,midRight,DOWN,green,l,lowA,Stimuli\green_bar1.png,Stimuli\green_bar1.png,Stimuli\ping.png,downRight,lowB,midLeft,high,downLeft,upLeft,upRight,3,rew_low,m,,,,,0,94,94,83,,,0.6,0.7,exp,m,1,10.14,0,7.16,-7.16,-10.14,0,-7.16,-7.16,-7.16,7.16,7.16,7.16,6,226,30,2292,0.8398926999943797,194,195,3,RL,1,M,29,R,2025-04-10_09h05.30.032,RewSL_RL_EEG,
ping,lowA,downRight,DOWN,green,l,high,Stimuli\green_bar1.png,Stimuli\green_bar1.png,Stimuli\ping.png,downLeft,lowB,midLeft,lowC,midRight,upLeft,upRight,3,rew_low,m,,,,,0,95,95,35,,,0.6,0.8,exp,z,0,7.16,-7.16,-7.16,-7.16,-10.14,0,10.14,0,-7.16,7.16,7.16,7.16,6,246,30,2292,0.8559870999888517,195,196,3,RL,1,M,29,R,2025-04-10_09h05.30.032,RewSL_RL_EEG,
ping,high,downLeft,UP,red,l,lowA,Stimuli\red_bar1.png,Stimuli\red_bar1.png,Stimuli\ping.png,downRight,lowB,midLeft,lowC,midRight,upLeft,upRight,3,rew_high,z,,,,,0,96,96,16,,,0.6,0.7,exp,z,1,-7.16,-7.16,7.16,-7.16,-10.14,0,10.14,0,-7.16,7.16,7.16,7.16,6,136,31,2392,0.6485701999918092,196,197,3,RL,1,M,29,R,2025-04-10_09h05.30.032,RewSL_RL_EEG,
ping,high,downLeft,UP,red,l,lowA,Stimuli\red_bar1.png,Stimuli\red_bar1.png,Stimuli\ping.png,downRight,lowB,midLeft,lowC,midRight,upLeft,upRight,3,rew_high,z,,,,,0,97,97,8,,,0.5,0.7,exp,m,0,-7.16,-7.16,7.16,-7.16,-10.14,0,10.14,0,-7.16,7.16,7.16,7.16,6,136,31,2392,0.6896119999873918,197,198,3,RL,1,M,29,R,2025-04-10_09h05.30.032,RewSL_RL_EEG,
ping,high,downLeft,DOWN,green,r,lowA,Stimuli\green_bar1.png,Stimuli\green_bar1.png,Stimuli\ping.png,downRight,lowB,midLeft,lowC,midRight,upLeft,upRight,3,rew_high,m,,,,,0,98,98,7,,,0.5,0.8,exp,m,1,-7.16,-7.16,7.16,-7.16,-10.14,0,10.14,0,-7.16,7.16,7.16,7.16,6,236,31,2492,0.5685760000196751,198,199,3,RL,1,M,29,R,2025-04-10_09h05.30.032,RewSL_RL_EEG,
ping,lowB,midLeft,UP,green,r,lowA,Stimuli\green_bar1.png,Stimuli\green_bar1.png,Stimuli\ping.png,downRight,high,downLeft,lowC,midRight,upLeft,upRight,3,rew_low,z,,,,,0,99,99,53,,,0.5,0.7,exp,m,0,-10.14,0,7.16,-7.16,-7.16,-7.16,10.14,0,-7.16,7.16,7.16,7.16,6,116,30,2492,0.8639911999925971,199,200,3,RL,1,M,29,R,2025-04-10_09h05.30.032,RewSL_RL_EEG,
ping,high,downRight,DOWN,green,r,lowA,Stimuli\green_bar1.png,Stimuli\green_bar1.png,Stimuli\ping.png,downLeft,lowB,midRight,lowC,midLeft,upLeft,upRight,4,rew_high,m,,,,,0,0,0,23,,,0.4,0.7,exp,m,1,7.16,-7.16,-7.16,-7.16,10.14,0,-10.14,0,-7.16,7.16,7.16,7.16,8,248,31,2592,0.6642769000027329,200,201,3,RL,1,M,29,R,2025-04-10_09h05.30.032,RewSL_RL_EEG,
ping,lowA,downLeft,UP,green,l,high,Stimuli\green_bar1.png,Stimuli\green_bar1.png,Stimuli\ping.png,downRight,lowB,midRight,lowC,midLeft,upLeft,upRight,4,rew_low,z,,,,,0,1,1,49,,,0.5,0.7,exp,z,1,-7.16,-7.16,7.16,-7.16,10.14,0,-10.14,0,-7.16,7.16,7.16,7.16,8,138,30,2593,0.785721399995964,201,202,3,RL,1,M,29,R,2025-04-10_09h05.30.032,RewSL_RL_EEG,
ping,lowA,downLeft,UP,green,l,high,Stimuli\green_bar1.png,Stimuli\green_bar1.png,Stimuli\ping.png,downRight,lowB,midRight,lowC,midLeft,upLeft,upRight,4,rew_low,z,,,,,0,2,2,41,,,0.6,0.8,exp,m,0,-7.16,-7.16,7.16,-7.16,10.14,0,-10.14,0,-7.16,7.16,7.16,7.16,8,138,30,2593,0.6312044999795035,202,203,3,RL,1,M,29,R,2025-04-10_09h05.30.032,RewSL_RL_EEG,
ping,lowB,midRight,UP,red,l,lowA,Stimuli\red_bar1.png,Stimuli\red_bar1.png,Stimuli\ping.png,downLeft,high,downRight,lowC,midLeft,upLeft,upRight,4,rew_low,z,,,,,0,3,3,72,,,0.6,0.7,exp,z,1,10.14,0,-7.16,-7.16,7.16,-7.16,-10.14,0,-7.16,7.16,7.16,7.16,8,128,30,2594,0.7986411000019871,203,204,3,RL,1,M,29,R,2025-04-10_09h05.30.032,RewSL_RL_EEG,
ping,lowA,downLeft,UP,red,r,high,Stimuli\red_bar1.png,Stimuli\red_bar1.png,Stimuli\ping.png,downRight,lowB,midRight,lowC,midLeft,upLeft,upRight,4,rew_low,z,,,,,0,4,4,44,,,0.5,0.8,exp,m,0,-7.16,-7.16,7.16,-7.16,10.14,0,-10.14,0,-7.16,7.16,7.16,7.16,8,138,30,2594,0.7686799000075553,204,205,3,RL,1,M,29,R,2025-04-10_09h05.30.032,RewSL_RL_EEG,
ping,lowA,downLeft,UP,green,r,high,Stimuli\green_bar1.png,Stimuli\green_bar1.png,Stimuli\ping.png,downRight,lowB,midRight,lowC,midLeft,upLeft,upRight,4,rew_low,z,,,,,0,5,5,37,,,0.5,0.8,exp,m,0,-7.16,-7.16,7.16,-7.16,10.14,0,-10.14,0,-7.16,7.16,7.16,7.16,8,138,30,2594,0.6687289999972563,205,206,3,RL,1,M,29,R,2025-04-10_09h05.30.032,RewSL_RL_EEG,
ping,lowC,midLeft,DOWN,green,r,lowA,Stimuli\green_bar1.png,Stimuli\green_bar1.png,Stimuli\ping.png,downLeft,lowB,midRight,high,downRight,upLeft,upRight,4,rew_low,m,,,,,0,6,6,95,,,0.5,0.7,exp,m,1,-10.14,0,-7.16,-7.16,10.14,0,7.16,-7.16,-7.16,7.16,7.16,7.16,8,218,30,2595,0.6228665999951772,206,207,3,RL,1,M,29,R,2025-04-10_09h05.30.032,RewSL_RL_EEG,
ping,lowC,midLeft,DOWN,green,l,lowA,Stimuli\green_bar1.png,Stimuli\green_bar1.png,Stimuli\ping.png,downLeft,lowB,midRight,high,downRight,upLeft,upRight,4,rew_low,m,,,,,0,7,7,91,,,0.4,0.8,exp,m,1,-10.14,0,-7.16,-7.16,10.14,0,7.16,-7.16,-7.16,7.16,7.16,7.16,8,218,30,2596,0.5726726000139024,207,208,3,RL,1,M,29,R,2025-04-10_09h05.30.032,RewSL_RL_EEG,
ping,lowB,midRight,UP,green,l,lowA,Stimuli\green_bar1.png,Stimuli\green_bar1.png,Stimuli\ping.png,downLeft,high,downRight,lowC,midLeft,upLeft,upRight,4,rew_low,z,,,,,0,8,8,65,,,0.5,0.7,exp,z,1,10.14,0,-7.16,-7.16,7.16,-7.16,-10.14,0,-7.16,7.16,7.16,7.16,8,128,30,2597,0.7602458999899682,208,209,3,RL,1,M,29,R,2025-04-10_09h05.30.032,RewSL_RL_EEG,
ping,high,downRight,UP,red,r,lowA,Stimuli\red_bar1.png,Stimuli\red_bar1.png,Stimuli\ping.png,downLeft,lowB,midRight,lowC,midLeft,upLeft,upRight,4,rew_high,z,,,,,0,9,9,4,,,0.5,0.8,exp,m,0,7.16,-7.16,-7.16,-7.16,10.14,0,-10.14,0,-7.16,7.16,7.16,7.16,8,148,31,2597,1.018521400023019,209,210,3,RL,1,M,29,R,2025-04-10_09h05.30.032,RewSL_RL_EEG,
ping,lowB,midRight,DOWN,green,l,lowA,Stimuli\green_bar1.png,Stimuli\green_bar1.png,Stimuli\ping.png,downLeft,high,downRight,lowC,midLeft,upLeft,upRight,4,rew_low,m,,,,,0,10,10,67,,,0.4,0.7,exp,z,0,10.14,0,-7.16,-7.16,7.16,-7.16,-10.14,0,-7.16,7.16,7.16,7.16,8,228,30,2597,1.0432326000009198,210,211,3,RL,1,M,29,R,2025-04-10_09h05.30.032,RewSL_RL_EEG,
ping,high,downRight,DOWN,red,l,lowA,Stimuli\red_bar1.png,Stimuli\red_bar1.png,Stimuli\ping.png,downLeft,lowB,midRight,lowC,midLeft,upLeft,upRight,4,rew_high,m,,,,,0,11,11,10,,,0.5,0.6,exp,z,0,7.16,-7.16,-7.16,-7.16,10.14,0,-10.14,0,-7.16,7.16,7.16,7.16,8,248,31,2597,0.568352500005858,211,212,3,RL,1,M,29,R,2025-04-10_09h05.30.032,RewSL_RL_EEG,
ping,lowB,midRight,UP,green,l,lowA,Stimuli\green_bar1.png,Stimuli\green_bar1.png,Stimuli\ping.png,downLeft,high,downRight,lowC,midLeft,upLeft,upRight,4,rew_low,z,,,,,0,12,12,73,,,0.4,0.7,exp,m,0,10.14,0,-7.16,-7.16,7.16,-7.16,-10.14,0,-7.16,7.16,7.16,7.16,8,128,30,2597,0.6936991999973543,212,213,3,RL,1,M,29,R,2025-04-10_09h05.30.032,RewSL_RL_EEG,
ping,lowB,midRight,DOWN,red,r,lowA,Stimuli\red_bar1.png,Stimuli\red_bar1.png,Stimuli\ping.png,downLeft,high,downRight,lowC,midLeft,upLeft,upRight,4,rew_low,m,,,,,0,13,13,62,,,0.6,0.7,exp,m,1,10.14,0,-7.16,-7.16,7.16,-7.16,-10.14,0,-7.16,7.16,7.16,7.16,8,228,30,2598,0.8723970999999437,213,214,3,RL,1,M,29,R,2025-04-10_09h05.30.032,RewSL_RL_EEG,
ping,lowB,midRight,DOWN,green,r,lowA,Stimuli\green_bar1.png,Stimuli\green_bar1.png,Stimuli\ping.png,downLeft,high,downRight,lowC,midLeft,upLeft,upRight,4,rew_low,m,,,,,0,14,14,55,,,0.5,0.7,exp,m,1,10.14,0,-7.16,-7.16,7.16,-7.16,-10.14,0,-7.16,7.16,7.16,7.16,8,228,30,2599,0.6187099000089802,214,215,3,RL,1,M,29,R,2025-04-10_09h05.30.032,RewSL_RL_EEG,
ping,lowC,midLeft,UP,red,r,lowA,Stimuli\red_bar1.png,Stimuli\red_bar1.png,Stimuli\ping.png,downLeft,lowB,midRight,high,downRight,upLeft,upRight,4,rew_low,z,,,,,0,15,15,76,,,0.4,0.8,exp,z,1,-10.14,0,-7.16,-7.16,10.14,0,7.16,-7.16,-7.16,7.16,7.16,7.16,8,118,30,2600,0.6771117000025697,215,216,3,RL,1,M,29,R,2025-04-10_09h05.30.032,RewSL_RL_EEG,
ping,lowA,downLeft,UP,green,r,high,Stimuli\green_bar1.png,Stimuli\green_bar1.png,Stimuli\ping.png,downRight,lowB,midRight,lowC,midLeft,upLeft,upRight,4,rew_low,z,,,,,0,16,16,45,,,0.4,0.6,exp,z,1,-7.16,-7.16,7.16,-7.16,10.14,0,-10.14,0,-7.16,7.16,7.16,7.16,8,138,30,2601,0.902437499986263,216,217,3,RL,1,M,29,R,2025-04-10_09h05.30.032,RewSL_RL_EEG,
ping,high,downRight,DOWN,green,r,lowA,Stimuli\green_bar1.png,Stimuli\green_bar1.png,Stimuli\ping.png,downLeft,lowB,midRight,lowC,midLeft,upLeft,upRight,4,rew_high,m,,,,,0,17,17,7,,,0.5,0.7,exp,z,0,7.16,-7.16,-7.16,-7.16,10.14,0,-10.14,0,-7.16,7.16,7.16,7.16,8,248,31,2601,0.8594568000116851,217,218,3,RL,1,M,29,R,2025-04-10_09h05.30.032,RewSL_RL_EEG,
ping,lowB,midRight,DOWN,green,l,lowA,Stimuli\green_bar1.png,Stimuli\green_bar1.png,Stimuli\ping.png,downLeft,high,downRight,lowC,midLeft,upLeft,upRight,4,rew_low,m,,,,,0,18,18,51,,,0.6,0.7,exp,z,0,10.14,0,-7.16,-7.16,7.16,-7.16,-10.14,0,-7.16,7.16,7.16,7.16,8,228,30,2601,1.0567439000005834,218,219,3,RL,1,M,29,R,2025-04-10_09h05.30.032,RewSL_RL_EEG,
ping,lowC,midLeft,DOWN,red,l,lowA,Stimuli\red_bar1.png,Stimuli\red_bar1.png,Stimuli\ping.png,downLeft,lowB,midRight,high,downRight,upLeft,upRight,4,rew_low,m,,,,,0,19,19,82,,,0.4,0.7,exp,m,1,-10.14,0,-7.16,-7.16,10.14,0,7.16,-7.16,-7.16,7.16,7.16,7.16,8,218,30,2602,0.9094493000011425,219,220,3,RL,1,M,29,R,2025-04-10_09h05.30.032,RewSL_RL_EEG,
ping,lowC,midLeft,UP,green,l,lowA,Stimuli\green_bar1.png,Stimuli\green_bar1.png,Stimuli\ping.png,downLeft,lowB,midRight,high,downRight,upLeft,upRight,4,rew_low,z,,,,,0,20,20,97,,,0.6,0.7,exp,m,0,-10.14,0,-7.16,-7.16,10.14,0,7.16,-7.16,-7.16,7.16,7.16,7.16,8,118,30,2602,0.9106843000045046,220,221,3,RL,1,M,29,R,2025-04-10_09h05.30.032,RewSL_RL_EEG,
ping,high,downRight,DOWN,red,r,lowA,Stimuli\red_bar1.png,Stimuli\red_bar1.png,Stimuli\ping.png,downLeft,lowB,midRight,lowC,midLeft,upLeft,upRight,4,rew_high,m,,,,,0,21,21,14,,,0.5,0.7,exp,m,1,7.16,-7.16,-7.16,-7.16,10.14,0,-10.14,0,-7.16,7.16,7.16,7.16,8,248,31,2702,0.8229065000195988,221,222,3,RL,1,M,29,R,2025-04-10_09h05.30.032,RewSL_RL_EEG,
ping,high,downRight,DOWN,red,l,lowA,Stimuli\red_bar1.png,Stimuli\red_bar1.png,Stimuli\ping.png,downLeft,lowB,midRight,lowC,midLeft,upLeft,upRight,4,rew_high,m,,,,,0,22,22,18,,,0.5,0.8,exp,m,1,7.16,-7.16,-7.16,-7.16,10.14,0,-10.14,0,-7.16,7.16,7.16,7.16,8,248,31,2802,0.681093699997291,222,223,3,RL,1,M,29,R,2025-04-10_09h05.30.032,RewSL_RL_EEG,
ping,lowA,downLeft,DOWN,green,l,high,Stimuli\green_bar1.png,Stimuli\green_bar1.png,Stimuli\ping.png,downRight,lowB,midRight,lowC,midLeft,upLeft,upRight,4,rew_low,m,,,,,0,23,23,43,,,0.5,0.7,exp,z,0,-7.16,-7.16,7.16,-7.16,10.14,0,-10.14,0,-7.16,7.16,7.16,7.16,8,238,30,2802,0.802386800001841,223,224,3,RL,1,M,29,R,2025-04-10_09h05.30.032,RewSL_RL_EEG,
ping,lowA,downLeft,DOWN,red,l,high,Stimuli\red_bar1.png,Stimuli\red_bar1.png,Stimuli\ping.png,downRight,lowB,midRight,lowC,midLeft,upLeft,upRight,4,rew_low,m,,,,,0,24,24,26,,,0.5,0.6,exp,m,1,-7.16,-7.16,7.16,-7.16,10.14,0,-10.14,0,-7.16,7.16,7.16,7.16,8,238,30,2803,0.6472884999820963,224,225,3,RL,1,M,29,R,2025-04-10_09h05.30.032,RewSL_RL_EEG,
ping,lowA,downLeft,DOWN,red,l,high,Stimuli\red_bar1.png,Stimuli\red_bar1.png,Stimuli\ping.png,downRight,lowB,midRight,lowC,midLeft,upLeft,upRight,4,rew_low,m,,,,,0,25,25,34,,,0.4,0.7,exp,z,0,-7.16,-7.16,7.16,-7.16,10.14,0,-10.14,0,-7.16,7.16,7.16,7.16,8,238,30,2803,0.5850404000084382,225,226,3,RL,1,M,29,R,2025-04-10_09h05.30.032,RewSL_RL_EEG,
ping,high,downRight,UP,green,l,lowA,Stimuli\green_bar1.png,Stimuli\green_bar1.png,Stimuli\ping.png,downLeft,lowB,midRight,lowC,midLeft,upLeft,upRight,4,rew_high,z,,,,,0,26,26,9,,,0.4,0.7,exp,m,0,7.16,-7.16,-7.16,-7.16,10.14,0,-10.14,0,-7.16,7.16,7.16,7.16,8,148,31,2803,1.2100994999927934,226,227,3,RL,1,M,29,R,2025-04-10_09h05.30.032,RewSL_RL_EEG,
ping,lowA,downLeft,DOWN,red,r,high,Stimuli\red_bar1.png,Stimuli\red_bar1.png,Stimuli\ping.png,downRight,lowB,midRight,lowC,midLeft,upLeft,upRight,4,rew_low,m,,,,,0,27,27,38,,,0.5,0.7,exp,z,0,-7.16,-7.16,7.16,-7.16,10.14,0,-10.14,0,-7.16,7.16,7.16,7.16,8,238,30,2803,0.797151800012216,227,228,3,RL,1,M,29,R,2025-04-10_09h05.30.032,RewSL_RL_EEG,
ping,lowC,midLeft,DOWN,red,r,lowA,Stimuli\red_bar1.png,Stimuli\red_bar1.png,Stimuli\ping.png,downLeft,lowB,midRight,high,downRight,upLeft,upRight,4,rew_low,m,,,,,0,28,28,78,,,0.6,0.6,exp,m,1,-10.14,0,-7.16,-7.16,10.14,0,7.16,-7.16,-7.16,7.16,7.16,7.16,8,218,30,2804,0.8021462000033353,228,229,3,RL,1,M,29,R,2025-04-10_09h05.30.032,RewSL_RL_EEG,
ping,lowC,midLeft,UP,green,r,lowA,Stimuli\green_bar1.png,Stimuli\green_bar1.png,Stimuli\ping.png,downLeft,lowB,midRight,high,downRight,upLeft,upRight,4,rew_low,z,,,,,0,29,29,93,,,0.5,0.6,exp,z,1,-10.14,0,-7.16,-7.16,10.14,0,7.16,-7.16,-7.16,7.16,7.16,7.16,8,118,30,2805,0.7731339999882039,229,230,3,RL,1,M,29,R,2025-04-10_09h05.30.032,RewSL_RL_EEG,
ping,lowC,midLeft,UP,green,r,lowA,Stimuli\green_bar1.png,Stimuli\green_bar1.png,Stimuli\ping.png,downLeft,lowB,midRight,high,downRight,upLeft,upRight,4,rew_low,z,,,,,0,30,30,85,,,0.5,0.7,exp,z,1,-10.14,0,-7.16,-7.16,10.14,0,7.16,-7.16,-7.16,7.16,7.16,7.16,8,118,30,2806,0.6023805000004359,230,231,3,RL,1,M,29,R,2025-04-10_09h05.30.032,RewSL_RL_EEG,
ping,lowA,downLeft,DOWN,green,l,high,Stimuli\green_bar1.png,Stimuli\green_bar1.png,Stimuli\ping.png,downRight,lowB,midRight,lowC,midLeft,upLeft,upRight,4,rew_low,m,,,,,0,31,31,27,,,0.4,0.7,exp,m,1,-7.16,-7.16,7.16,-7.16,10.14,0,-10.14,0,-7.16,7.16,7.16,7.16,8,238,30,2807,0.8021775999804959,231,232,3,RL,1,M,29,R,2025-04-10_09h05.30.032,RewSL_RL_EEG,
ping,lowC,midLeft,UP,green,l,lowA,Stimuli\green_bar1.png,Stimuli\green_bar1.png,Stimuli\ping.png,downLeft,lowB,midRight,high,downRight,upLeft,upRight,4,rew_low,z,,,,,0,32,32,81,,,0.4,0.7,exp,z,1,-10.14,0,-7.16,-7.16,10.14,0,7.16,-7.16,-7.16,7.16,7.16,7.16,8,118,30,2808,0.7858560000022408,232,233,3,RL,1,M,29,R,2025-04-10_09h05.30.032,RewSL_RL_EEG,
ping,lowC,midLeft,DOWN,red,l,lowA,Stimuli\red_bar1.png,Stimuli\red_bar1.png,Stimuli\ping.png,downLeft,lowB,midRight,high,downRight,upLeft,upRight,4,rew_low,m,,,,,0,33,33,90,,,0.5,0.7,exp,m,1,-10.14,0,-7.16,-7.16,10.14,0,7.16,-7.16,-7.16,7.16,7.16,7.16,8,218,30,2809,0.6185278999910224,233,234,3,RL,1,M,29,R,2025-04-10_09h05.30.032,RewSL_RL_EEG,
ping,lowC,midLeft,DOWN,green,r,lowA,Stimuli\green_bar1.png,Stimuli\green_bar1.png,Stimuli\ping.png,downLeft,lowB,midRight,high,downRight,upLeft,upRight,4,rew_low,m,,,,,0,34,34,99,,,0.5,0.6,exp,m,1,-10.14,0,-7.16,-7.16,10.14,0,7.16,-7.16,-7.16,7.16,7.16,7.16,8,218,30,2810,0.6902810000174213,234,235,3,RL,1,M,29,R,2025-04-10_09h05.30.032,RewSL_RL_EEG,
ping,lowB,midRight,DOWN,green,r,lowA,Stimuli\green_bar1.png,Stimuli\green_bar1.png,Stimuli\ping.png,downLeft,high,downRight,lowC,midLeft,upLeft,upRight,4,rew_low,m,,,,,0,35,35,71,,,0.5,0.7,exp,m,1,10.14,0,-7.16,-7.16,7.16,-7.16,-10.14,0,-7.16,7.16,7.16,7.16,8,228,30,2811,0.9061016000050586,235,236,3,RL,1,M,29,R,2025-04-10_09h05.30.032,RewSL_RL_EEG,
ping,lowB,midRight,DOWN,green,r,lowA,Stimuli\green_bar1.png,Stimuli\green_bar1.png,Stimuli\ping.png,downLeft,high,downRight,lowC,midLeft,upLeft,upRight,4,rew_low,m,,,,,0,36,36,63,,,0.4,0.8,exp,m,1,10.14,0,-7.16,-7.16,7.16,-7.16,-10.14,0,-7.16,7.16,7.16,7.16,8,228,30,2812,1.0480383000103757,236,237,3,RL,1,M,29,R,2025-04-10_09h05.30.032,RewSL_RL_EEG,
ping,lowA,downLeft,UP,red,l,high,Stimuli\red_bar1.png,Stimuli\red_bar1.png,Stimuli\ping.png,downRight,lowB,midRight,lowC,midLeft,upLeft,upRight,4,rew_low,z,,,,,0,37,37,48,,,0.6,0.8,exp,None,0,-7.16,-7.16,7.16,-7.16,10.14,0,-10.14,0,-7.16,7.16,7.16,7.16,8,138,30,2812,,237,238,3,RL,1,M,29,R,2025-04-10_09h05.30.032,RewSL_RL_EEG,
ping,lowB,midRight,UP,green,r,lowA,Stimuli\green_bar1.png,Stimuli\green_bar1.png,Stimuli\ping.png,downLeft,high,downRight,lowC,midLeft,upLeft,upRight,4,rew_low,z,,,,,0,38,38,61,,,0.4,0.8,exp,m,0,10.14,0,-7.16,-7.16,7.16,-7.16,-10.14,0,-7.16,7.16,7.16,7.16,8,128,30,2812,0.7856672000198159,238,239,3,RL,1,M,29,R,2025-04-10_09h05.30.032,RewSL_RL_EEG,
ping,lowC,midLeft,DOWN,red,r,lowA,Stimuli\red_bar1.png,Stimuli\red_bar1.png,Stimuli\ping.png,downLeft,lowB,midRight,high,downRight,upLeft,upRight,4,rew_low,m,,,,,0,39,39,98,,,0.4,0.8,exp,z,0,-10.14,0,-7.16,-7.16,10.14,0,7.16,-7.16,-7.16,7.16,7.16,7.16,8,218,30,2812,0.6318394000118133,239,240,3,RL,1,M,29,R,2025-04-10_09h05.30.032,RewSL_RL_EEG,
ping,high,downRight,UP,green,r,lowA,Stimuli\green_bar1.png,Stimuli\green_bar1.png,Stimuli\ping.png,downLeft,lowB,midRight,lowC,midLeft,upLeft,upRight,4,rew_high,z,,,,,0,40,40,13,,,0.5,0.7,exp,z,1,7.16,-7.16,-7.16,-7.16,10.14,0,-10.14,0,-7.16,7.16,7.16,7.16,8,148,31,2912,0.6771393000090029,240,241,3,RL,1,M,29,R,2025-04-10_09h05.30.032,RewSL_RL_EEG,
ping,lowB,midRight,DOWN,red,l,lowA,Stimuli\red_bar1.png,Stimuli\red_bar1.png,Stimuli\ping.png,downLeft,high,downRight,lowC,midLeft,upLeft,upRight,4,rew_low,m,,,,,0,41,41,58,,,0.5,0.7,exp,m,1,10.14,0,-7.16,-7.16,7.16,-7.16,-10.14,0,-7.16,7.16,7.16,7.16,8,228,30,2913,0.5601274000073317,241,242,3,RL,1,M,29,R,2025-04-10_09h05.30.032,RewSL_RL_EEG,
ping,high,downRight,DOWN,green,r,lowA,Stimuli\green_bar1.png,Stimuli\green_bar1.png,Stimuli\ping.png,downLeft,lowB,midRight,lowC,midLeft,upLeft,upRight,4,rew_high,m,,,,,0,42,42,15,,,0.5,0.7,exp,m,1,7.16,-7.16,-7.16,-7.16,10.14,0,-10.14,0,-7.16,7.16,7.16,7.16,8,248,31,3013,0.7306690000114031,242,243,3,RL,1,M,29,R,2025-04-10_09h05.30.032,RewSL_RL_EEG,
ping,lowB,midRight,UP,green,r,lowA,Stimuli\green_bar1.png,Stimuli\green_bar1.png,Stimuli\ping.png,downLeft,high,downRight,lowC,midLeft,upLeft,upRight,4,rew_low,z,,,,,0,43,43,69,,,0.6,0.7,exp,m,0,10.14,0,-7.16,-7.16,7.16,-7.16,-10.14,0,-7.16,7.16,7.16,7.16,8,128,30,3013,0.9397418999869842,243,244,3,RL,1,M,29,R,2025-04-10_09h05.30.032,RewSL_RL_EEG,
ping,lowB,midRight,UP,red,r,lowA,Stimuli\red_bar1.png,Stimuli\red_bar1.png,Stimuli\ping.png,downLeft,high,downRight,lowC,midLeft,upLeft,upRight,4,rew_low,z,,,,,0,44,44,68,,,0.6,0.8,exp,z,1,10.14,0,-7.16,-7.16,7.16,-7.16,-10.14,0,-7.16,7.16,7.16,7.16,8,128,30,3014,1.0103006999997888,244,245,3,RL,1,M,29,R,2025-04-10_09h05.30.032,RewSL_RL_EEG,
ping,lowA,downLeft,UP,red,r,high,Stimuli\red_bar1.png,Stimuli\red_bar1.png,Stimuli\ping.png,downRight,lowB,midRight,lowC,midLeft,upLeft,upRight,4,rew_low,z,,,,,0,45,45,28,,,0.6,0.8,exp,m,0,-7.16,-7.16,7.16,-7.16,10.14,0,-10.14,0,-7.16,7.16,7.16,7.16,8,138,30,3014,0.847854699997697,245,246,3,RL,1,M,29,R,2025-04-10_09h05.30.032,RewSL_RL_EEG,
ping,high,downRight,UP,green,r,lowA,Stimuli\green_bar1.png,Stimuli\green_bar1.png,Stimuli\ping.png,downLeft,lowB,midRight,lowC,midLeft,upLeft,upRight,4,rew_high,z,,,,,0,46,46,5,,,0.5,0.7,exp,m,0,7.16,-7.16,-7.16,-7.16,10.14,0,-10.14,0,-7.16,7.16,7.16,7.16,8,148,31,3014,1.1480561000062153,246,247,3,RL,1,M,29,R,2025-04-10_09h05.30.032,RewSL_RL_EEG,
ping,high,downRight,UP,green,r,lowA,Stimuli\green_bar1.png,Stimuli\green_bar1.png,Stimuli\ping.png,downLeft,lowB,midRight,lowC,midLeft,upLeft,upRight,4,rew_high,z,,,,,0,47,47,21,,,0.5,0.7,exp,m,0,7.16,-7.16,-7.16,-7.16,10.14,0,-10.14,0,-7.16,7.16,7.16,7.16,8,148,31,3014,1.1061695999815129,247,248,3,RL,1,M,29,R,2025-04-10_09h05.30.032,RewSL_RL_EEG,
ping,high,downRight,UP,red,l,lowA,Stimuli\red_bar1.png,Stimuli\red_bar1.png,Stimuli\ping.png,downLeft,lowB,midRight,lowC,midLeft,upLeft,upRight,4,rew_high,z,,,,,0,48,48,16,,,0.4,0.6,exp,z,1,7.16,-7.16,-7.16,-7.16,10.14,0,-10.14,0,-7.16,7.16,7.16,7.16,8,148,31,3114,0.9604296000034083,248,249,3,RL,1,M,29,R,2025-04-10_09h05.30.032,RewSL_RL_EEG,
ping,high,downRight,DOWN,red,l,lowA,Stimuli\red_bar1.png,Stimuli\red_bar1.png,Stimuli\ping.png,downLeft,lowB,midRight,lowC,midLeft,upLeft,upRight,4,rew_high,m,,,,,0,49,49,2,,,0.5,0.7,exp,z,0,7.16,-7.16,-7.16,-7.16,10.14,0,-10.14,0,-7.16,7.16,7.16,7.16,8,248,31,3114,1.2770313999790233,249,250,3,RL,1,M,29,R,2025-04-10_09h05.30.032,RewSL_RL_EEG,
ping,lowA,downLeft,UP,green,r,high,Stimuli\green_bar1.png,Stimuli\green_bar1.png,Stimuli\ping.png,downRight,lowB,midRight,lowC,midLeft,upLeft,upRight,4,rew_low,z,,,,,0,50,50,29,,,0.4,0.7,exp,None,0,-7.16,-7.16,7.16,-7.16,10.14,0,-10.14,0,-7.16,7.16,7.16,7.16,8,138,30,3114,,250,251,3,RL,1,M,29,R,2025-04-10_09h05.30.032,RewSL_RL_EEG,
ping,lowC,midLeft,DOWN,green,l,lowA,Stimuli\green_bar1.png,Stimuli\green_bar1.png,Stimuli\ping.png,downLeft,lowB,midRight,high,downRight,upLeft,upRight,4,rew_low,m,,,,,0,51,51,83,,,0.5,0.6,exp,m,1,-10.14,0,-7.16,-7.16,10.14,0,7.16,-7.16,-7.16,7.16,7.16,7.16,8,218,30,3115,0.8554537000018172,251,252,3,RL,1,M,29,R,2025-04-10_09h05.30.032,RewSL_RL_EEG,
ping,high,downRight,UP,red,l,lowA,Stimuli\red_bar1.png,Stimuli\red_bar1.png,Stimuli\ping.png,downLeft,lowB,midRight,lowC,midLeft,upLeft,upRight,4,rew_high,z,,,,,0,52,52,24,,,0.5,0.6,exp,m,0,7.16,-7.16,-7.16,-7.16,10.14,0,-10.14,0,-7.16,7.16,7.16,7.16,8,148,31,3115,1.0313477000163402,252,253,3,RL,1,M,29,R,2025-04-10_09h05.30.032,RewSL_RL_EEG,
ping,lowB,midRight,UP,green,l,lowA,Stimuli\green_bar1.png,Stimuli\green_bar1.png,Stimuli\ping.png,downLeft,high,downRight,lowC,midLeft,upLeft,upRight,4,rew_low,z,,,,,0,53,53,57,,,0.4,0.6,exp,m,0,10.14,0,-7.16,-7.16,7.16,-7.16,-10.14,0,-7.16,7.16,7.16,7.16,8,128,30,3115,0.9477604999847244,253,254,3,RL,1,M,29,R,2025-04-10_09h05.30.032,RewSL_RL_EEG,
ping,high,downRight,UP,green,l,lowA,Stimuli\green_bar1.png,Stimuli\green_bar1.png,Stimuli\ping.png,downLeft,lowB,midRight,lowC,midLeft,upLeft,upRight,4,rew_high,z,,,,,0,54,54,17,,,0.5,0.7,exp,m,0,7.16,-7.16,-7.16,-7.16,10.14,0,-10.14,0,-7.16,7.16,7.16,7.16,8,148,31,3115,0.8852557000063825,254,255,3,RL,1,M,29,R,2025-04-10_09h05.30.032,RewSL_RL_EEG,
ping,high,downRight,UP,red,l,lowA,Stimuli\red_bar1.png,Stimuli\red_bar1.png,Stimuli\ping.png,downLeft,lowB,midRight,lowC,midLeft,upLeft,upRight,4,rew_high,z,,,,,0,55,55,8,,,0.4,0.7,exp,z,1,7.16,-7.16,-7.16,-7.16,10.14,0,-10.14,0,-7.16,7.16,7.16,7.16,8,148,31,3215,0.7395446000155061,255,256,3,RL,1,M,29,R,2025-04-10_09h05.30.032,RewSL_RL_EEG,
ping,lowC,midLeft,DOWN,green,l,lowA,Stimuli\green_bar1.png,Stimuli\green_bar1.png,Stimuli\ping.png,downLeft,lowB,midRight,high,downRight,upLeft,upRight,4,rew_low,m,,,,,0,56,56,75,,,0.5,0.7,exp,m,1,-10.14,0,-7.16,-7.16,10.14,0,7.16,-7.16,-7.16,7.16,7.16,7.16,8,218,30,3216,0.7146109000022989,256,257,3,RL,1,M,29,R,2025-04-10_09h05.30.032,RewSL_RL_EEG,
ping,lowC,midLeft,UP,red,r,lowA,Stimuli\red_bar1.png,Stimuli\red_bar1.png,Stimuli\ping.png,downLeft,lowB,midRight,high,downRight,upLeft,upRight,4,rew_low,z,,,,,0,57,57,92,,,0.5,0.8,exp,z,1,-10.14,0,-7.16,-7.16,10.14,0,7.16,-7.16,-7.16,7.16,7.16,7.16,8,118,30,3217,0.6942922000016551,257,258,3,RL,1,M,29,R,2025-04-10_09h05.30.032,RewSL_RL_EEG,
ping,lowA,downLeft,DOWN,green,l,high,Stimuli\green_bar1.png,Stimuli\green_bar1.png,Stimuli\ping.png,downRight,lowB,midRight,lowC,midLeft,upLeft,upRight,4,rew_low,m,,,,,0,58,58,35,,,0.5,0.6,exp,z,0,-7.16,-7.16,7.16,-7.16,10.14,0,-10.14,0,-7.16,7.16,7.16,7.16,8,238,30,3217,1.01519659999758,258,259,3,RL,1,M,29,R,2025-04-10_09h05.30.032,RewSL_RL_EEG,
ping,lowB,midRight,DOWN,green,l,lowA,Stimuli\green_bar1.png,Stimuli\green_bar1.png,Stimuli\ping.png,downLeft,high,downRight,lowC,midLeft,upLeft,upRight,4,rew_low,m,,,,,0,59,59,59,,,0.5,0.6,exp,m,1,10.14,0,-7.16,-7.16,7.16,-7.16,-10.14,0,-7.16,7.16,7.16,7.16,8,228,30,3218,0.9562158000189811,259,260,3,RL,1,M,29,R,2025-04-10_09h05.30.032,RewSL_RL_EEG,
ping,lowA,downLeft,UP,red,l,high,Stimuli\red_bar1.png,Stimuli\red_bar1.png,Stimuli\ping.png,downRight,lowB,midRight,lowC,midLeft,upLeft,upRight,4,rew_low,z,,,,,0,60,60,32,,,0.4,0.6,exp,m,0,-7.16,-7.16,7.16,-7.16,10.14,0,-10.14,0,-7.16,7.16,7.16,7.16,8,138,30,3218,0.8101342000009026,260,261,3,RL,1,M,29,R,2025-04-10_09h05.30.032,RewSL_RL_EEG,
ping,lowA,downLeft,DOWN,green,r,high,Stimuli\green_bar1.png,Stimuli\green_bar1.png,Stimuli\ping.png,downRight,lowB,midRight,lowC,midLeft,upLeft,upRight,4,rew_low,m,,,,,0,61,61,47,,,0.5,0.7,exp,m,1,-7.16,-7.16,7.16,-7.16,10.14,0,-10.14,0,-7.16,7.16,7.16,7.16,8,238,30,3219,0.6729920000070706,261,262,3,RL,1,M,29,R,2025-04-10_09h05.30.032,RewSL_RL_EEG,
ping,lowA,downLeft,DOWN,red,l,high,Stimuli\red_bar1.png,Stimuli\red_bar1.png,Stimuli\ping.png,downRight,lowB,midRight,lowC,midLeft,upLeft,upRight,4,rew_low,m,,,,,0,62,62,42,,,0.5,0.8,exp,m,1,-7.16,-7.16,7.16,-7.16,10.14,0,-10.14,0,-7.16,7.16,7.16,7.16,8,238,30,3220,1.015727899997728,262,263,3,RL,1,M,29,R,2025-04-10_09h05.30.032,RewSL_RL_EEG,
ping,lowC,midLeft,UP,red,r,lowA,Stimuli\red_bar1.png,Stimuli\red_bar1.png,Stimuli\ping.png,downLeft,lowB,midRight,high,downRight,upLeft,upRight,4,rew_low,z,,,,,0,63,63,84,,,0.5,0.7,exp,z,1,-10.14,0,-7.16,-7.16,10.14,0,7.16,-7.16,-7.16,7.16,7.16,7.16,8,118,30,3221,0.7647174999874551,263,264,3,RL,1,M,29,R,2025-04-10_09h05.30.032,RewSL_RL_EEG,
ping,lowB,midRight,DOWN,red,l,lowA,Stimuli\red_bar1.png,Stimuli\red_bar1.png,Stimuli\ping.png,downLeft,high,downRight,lowC,midLeft,upLeft,upRight,4,rew_low,m,,,,,0,64,64,66,,,0.5,0.7,exp,m,1,10.14,0,-7.16,-7.16,7.16,-7.16,-10.14,0,-7.16,7.16,7.16,7.16,8,228,30,3222,0.9981155999994371,264,265,3,RL,1,M,29,R,2025-04-10_09h05.30.032,RewSL_RL_EEG,
ping,high,downRight,UP,green,l,lowA,Stimuli\green_bar1.png,Stimuli\green_bar1.png,Stimuli\ping.png,downLeft,lowB,midRight,lowC,midLeft,upLeft,upRight,4,rew_high,z,,,,,0,65,65,1,,,0.5,0.6,exp,m,0,7.16,-7.16,-7.16,-7.16,10.14,0,-10.14,0,-7.16,7.16,7.16,7.16,8,148,31,3222,0.8023810000158846,265,266,3,RL,1,M,29,R,2025-04-10_09h05.30.032,RewSL_RL_EEG,
ping,lowA,downLeft,DOWN,green,r,high,Stimuli\green_bar1.png,Stimuli\green_bar1.png,Stimuli\ping.png,downRight,lowB,midRight,lowC,midLeft,upLeft,upRight,4,rew_low,m,,,,,0,66,66,39,,,0.4,0.6,exp,m,1,-7.16,-7.16,7.16,-7.16,10.14,0,-10.14,0,-7.16,7.16,7.16,7.16,8,238,30,3223,0.8310658000118565,266,267,3,RL,1,M,29,R,2025-04-10_09h05.30.032,RewSL_RL_EEG,
ping,lowB,midRight,DOWN,red,r,lowA,Stimuli\red_bar1.png,Stimuli\red_bar1.png,Stimuli\ping.png,downLeft,high,downRight,lowC,midLeft,upLeft,upRight,4,rew_low,m,,,,,0,67,67,70,,,0.6,0.6,exp,m,1,10.14,0,-7.16,-7.16,7.16,-7.16,-10.14,0,-7.16,7.16,7.16,7.16,8,228,30,3224,0.8234431000018958,267,268,3,RL,1,M,29,R,2025-04-10_09h05.30.032,RewSL_RL_EEG,
ping,high,downRight,UP,red,r,lowA,Stimuli\red_bar1.png,Stimuli\red_bar1.png,Stimuli\ping.png,downLeft,lowB,midRight,lowC,midLeft,upLeft,upRight,4,rew_high,z,,,,,0,68,68,20,,,0.4,0.7,exp,z,1,7.16,-7.16,-7.16,-7.16,10.14,0,-10.14,0,-7.16,7.16,7.16,7.16,8,148,31,3324,0.9982161000079941,268,269,3,RL,1,M,29,R,2025-04-10_09h05.30.032,RewSL_RL_EEG,
ping,lowB,midRight,DOWN,red,l,lowA,Stimuli\red_bar1.png,Stimuli\red_bar1.png,Stimuli\ping.png,downLeft,high,downRight,lowC,midLeft,upLeft,upRight,4,rew_low,m,,,,,0,69,69,74,,,0.6,0.7,exp,None,0,10.14,0,-7.16,-7.16,7.16,-7.16,-10.14,0,-7.16,7.16,7.16,7.16,8,228,30,3324,,269,270,3,RL,1,M,29,R,2025-04-10_09h05.30.032,RewSL_RL_EEG,
ping,lowB,midRight,DOWN,red,r,lowA,Stimuli\red_bar1.png,Stimuli\red_bar1.png,Stimuli\ping.png,downLeft,high,downRight,lowC,midLeft,upLeft,upRight,4,rew_low,m,,,,,0,70,70,54,,,0.5,0.7,exp,m,1,10.14,0,-7.16,-7.16,7.16,-7.16,-10.14,0,-7.16,7.16,7.16,7.16,8,228,30,3325,0.977080400014529,270,271,3,RL,1,M,29,R,2025-04-10_09h05.30.032,RewSL_RL_EEG,
ping,lowC,midLeft,DOWN,green,r,lowA,Stimuli\green_bar1.png,Stimuli\green_bar1.png,Stimuli\ping.png,downLeft,lowB,midRight,high,downRight,upLeft,upRight,4,rew_low,m,,,,,0,71,71,79,,,0.5,0.6,exp,m,1,-10.14,0,-7.16,-7.16,10.14,0,7.16,-7.16,-7.16,7.16,7.16,7.16,8,218,30,3326,0.8646979999903124,271,272,3,RL,1,M,29,R,2025-04-10_09h05.30.032,RewSL_RL_EEG,
