trial_type,t_frequency,targetPos,Gap,arrayColor,targetOri,f1_frequency,TargetFile,stimuliFile,pingFile,f1_pos,f2_frequency,f2_pos,f3_frequency,f3_pos,f4_pos,f5_pos,Rlblock,Reward,corrAns,trials_p.thisRepN,trials_p.thisTrialN,trials_p.thisN,trials_p.thisIndex,trials_e.thisRepN,trials_e.thisTrialN,trials_e.thisN,trials_e.thisIndex,thisRow.t,notes,FIX,PINGdur,epoch,key_resp.keys,key_resp.corr,key_resp.rt,targetX,targetY,filler1X,filler1Y,filler2X,filler2Y,filler3X,filler3Y,filler4X,filler4Y,filler5X,filler5Y,pingID,ID,rewID,reward_sum,completed_trials,trial_count,participant,learning,session_nr,gender,age,handedness,date,expName,
ping,high,midLeft,UP,red,l,lowA,Stimuli\red_bar1.png,Stimuli\red_bar1.png,Stimuli\ping.png,midRight,lowB,downLeft,lowC,downRight,upLeft,upRight,1,rew_high,z,0,0,0,0,,,,,,,0.5,0.7,practice,z,1,0.4978003000142053,-10.14,0,10.14,0,-7.16,-7.16,7.16,-7.16,-7.16,7.16,7.16,7.16,2,112,31,100,,,4,RL,1,M,24,R,2025-04-10_14h34.10.545,RewSL_RL_EEG,
ping,lowC,downRight,UP,green,l,lowA,Stimuli\green_bar1.png,Stimuli\green_bar1.png,Stimuli\ping.png,midRight,lowB,downLeft,high,midLeft,upLeft,upRight,1,rew_low,z,0,1,1,15,,,,,,,0.6,0.7,practice,m,0,0.3268610999803059,7.16,-7.16,10.14,0,-7.16,-7.16,-10.14,0,-7.16,7.16,7.16,7.16,2,142,30,100,,,4,RL,1,M,24,R,2025-04-10_14h34.10.545,RewSL_RL_EEG,
ping,lowA,midRight,DOWN,green,l,high,Stimuli\green_bar1.png,Stimuli\green_bar1.png,Stimuli\ping.png,midLeft,lowB,downLeft,lowC,downRight,upLeft,upRight,1,rew_low,m,0,2,2,5,,,,,,,0.6,0.6,practice,z,0,0.2904309000005014,10.14,0,-10.14,0,-7.16,-7.16,7.16,-7.16,-7.16,7.16,7.16,7.16,2,222,30,100,,,4,RL,1,M,24,R,2025-04-10_14h34.10.545,RewSL_RL_EEG,
ping,lowB,downLeft,UP,green,r,lowA,Stimuli\green_bar1.png,Stimuli\green_bar1.png,Stimuli\ping.png,midRight,high,midLeft,lowC,downRight,upLeft,upRight,1,rew_low,z,0,3,3,9,,,,,,,0.6,0.8,practice,m,0,0.523664100037422,-7.16,-7.16,10.14,0,-10.14,0,7.16,-7.16,-7.16,7.16,7.16,7.16,2,132,30,100,,,4,RL,1,M,24,R,2025-04-10_14h34.10.545,RewSL_RL_EEG,
ping,lowC,downRight,DOWN,red,r,lowA,Stimuli\red_bar1.png,Stimuli\red_bar1.png,Stimuli\ping.png,midRight,lowB,downLeft,high,midLeft,upLeft,upRight,1,rew_low,m,0,4,4,12,,,,,,,0.6,0.8,practice,m,1,0.44112749997293577,7.16,-7.16,10.14,0,-7.16,-7.16,-10.14,0,-7.16,7.16,7.16,7.16,2,242,30,101,,,4,RL,1,M,24,R,2025-04-10_14h34.10.545,RewSL_RL_EEG,
ping,high,midLeft,DOWN,green,l,lowA,Stimuli\green_bar1.png,Stimuli\green_bar1.png,Stimuli\ping.png,midRight,lowB,downLeft,lowC,downRight,upLeft,upRight,1,rew_high,m,0,5,5,3,,,,,,,0.5,0.6,practice,m,1,0.481450000021141,-10.14,0,10.14,0,-7.16,-7.16,7.16,-7.16,-7.16,7.16,7.16,7.16,2,212,31,201,,,4,RL,1,M,24,R,2025-04-10_14h34.10.545,RewSL_RL_EEG,
ping,lowA,midRight,UP,red,r,high,Stimuli\red_bar1.png,Stimuli\red_bar1.png,Stimuli\ping.png,midLeft,lowB,downLeft,lowC,downRight,upLeft,upRight,1,rew_low,z,0,6,6,6,,,,,,,0.6,0.6,practice,m,0,0.3603753999923356,10.14,0,-10.14,0,-7.16,-7.16,7.16,-7.16,-7.16,7.16,7.16,7.16,2,122,30,201,,,4,RL,1,M,24,R,2025-04-10_14h34.10.545,RewSL_RL_EEG,
ping,lowB,downLeft,DOWN,red,r,lowA,Stimuli\red_bar1.png,Stimuli\red_bar1.png,Stimuli\ping.png,midRight,high,midLeft,lowC,downRight,upLeft,upRight,1,rew_low,m,0,7,7,10,,,,,,,0.4,0.8,practice,z,0,0.26019930001348257,-7.16,-7.16,10.14,0,-10.14,0,7.16,-7.16,-7.16,7.16,7.16,7.16,2,232,30,201,,,4,RL,1,M,24,R,2025-04-10_14h34.10.545,RewSL_RL_EEG,
ping,lowB,downLeft,UP,red,r,lowA,Stimuli\red_bar1.png,Stimuli\red_bar1.png,Stimuli\ping.png,midRight,high,midLeft,lowC,downRight,upLeft,upRight,1,rew_low,z,0,8,8,8,,,,,,,0.4,0.6,practice,m,0,0.3525285000214353,-7.16,-7.16,10.14,0,-10.14,0,7.16,-7.16,-7.16,7.16,7.16,7.16,2,132,30,201,,,4,RL,1,M,24,R,2025-04-10_14h34.10.545,RewSL_RL_EEG,
ping,high,midLeft,UP,green,l,lowA,Stimuli\green_bar1.png,Stimuli\green_bar1.png,Stimuli\ping.png,midRight,lowB,downLeft,lowC,downRight,upLeft,upRight,1,rew_high,z,0,9,9,1,,,,,,,0.4,0.7,practice,m,0,0.41097319999244064,-10.14,0,10.14,0,-7.16,-7.16,7.16,-7.16,-7.16,7.16,7.16,7.16,2,112,31,201,,,4,RL,1,M,24,R,2025-04-10_14h34.10.545,RewSL_RL_EEG,
ping,lowC,downRight,DOWN,green,r,lowA,Stimuli\green_bar1.png,Stimuli\green_bar1.png,Stimuli\ping.png,midRight,lowB,downLeft,high,midLeft,upLeft,upRight,1,rew_low,m,0,10,10,13,,,,,,,0.5,0.7,practice,m,1,0.44343570002820343,7.16,-7.16,10.14,0,-7.16,-7.16,-10.14,0,-7.16,7.16,7.16,7.16,2,242,30,202,,,4,RL,1,M,24,R,2025-04-10_14h34.10.545,RewSL_RL_EEG,
ping,lowC,downRight,UP,red,l,lowA,Stimuli\red_bar1.png,Stimuli\red_bar1.png,Stimuli\ping.png,midRight,lowB,downLeft,high,midLeft,upLeft,upRight,1,rew_low,z,0,11,11,14,,,,,,,0.4,0.8,practice,z,1,0.36865710001438856,7.16,-7.16,10.14,0,-7.16,-7.16,-10.14,0,-7.16,7.16,7.16,7.16,2,142,30,203,,,4,RL,1,M,24,R,2025-04-10_14h34.10.545,RewSL_RL_EEG,
ping,lowA,midRight,UP,green,r,high,Stimuli\green_bar1.png,Stimuli\green_bar1.png,Stimuli\ping.png,midLeft,lowB,downLeft,lowC,downRight,upLeft,upRight,1,rew_low,z,0,12,12,7,,,,,,,0.4,0.8,practice,z,1,0.3315207000123337,10.14,0,-10.14,0,-7.16,-7.16,7.16,-7.16,-7.16,7.16,7.16,7.16,2,122,30,204,,,4,RL,1,M,24,R,2025-04-10_14h34.10.545,RewSL_RL_EEG,
ping,lowB,downLeft,DOWN,green,r,lowA,Stimuli\green_bar1.png,Stimuli\green_bar1.png,Stimuli\ping.png,midRight,high,midLeft,lowC,downRight,upLeft,upRight,1,rew_low,m,0,13,13,11,,,,,,,0.5,0.7,practice,m,1,0.33055730001069605,-7.16,-7.16,10.14,0,-10.14,0,7.16,-7.16,-7.16,7.16,7.16,7.16,2,232,30,205,,,4,RL,1,M,24,R,2025-04-10_14h34.10.545,RewSL_RL_EEG,
ping,lowA,midRight,DOWN,red,l,high,Stimuli\red_bar1.png,Stimuli\red_bar1.png,Stimuli\ping.png,midLeft,lowB,downLeft,lowC,downRight,upLeft,upRight,1,rew_low,m,0,14,14,4,,,,,,,0.5,0.7,practice,z,0,0.3431927000056021,10.14,0,-10.14,0,-7.16,-7.16,7.16,-7.16,-7.16,7.16,7.16,7.16,2,222,30,205,,,4,RL,1,M,24,R,2025-04-10_14h34.10.545,RewSL_RL_EEG,
ping,high,midLeft,DOWN,red,l,lowA,Stimuli\red_bar1.png,Stimuli\red_bar1.png,Stimuli\ping.png,midRight,lowB,downLeft,lowC,downRight,upLeft,upRight,1,rew_high,m,0,15,15,2,,,,,,,0.5,0.8,practice,m,1,0.25281110004289076,-10.14,0,10.14,0,-7.16,-7.16,7.16,-7.16,-7.16,7.16,7.16,7.16,2,212,31,305,,,4,RL,1,M,24,R,2025-04-10_14h34.10.545,RewSL_RL_EEG,
ping,lowB,downLeft,UP,green,l,lowA,Stimuli\green_bar1.png,Stimuli\green_bar1.png,Stimuli\ping.png,midRight,high,midLeft,lowC,downRight,upLeft,upRight,1,rew_low,z,,,,,0,0,0,57,,,0.4,0.7,exp,m,0,0.43503599998075515,-7.16,-7.16,10.14,0,-10.14,0,7.16,-7.16,-7.16,7.16,7.16,7.16,2,132,30,0,0,1,4,RL,1,M,24,R,2025-04-10_14h34.10.545,RewSL_RL_EEG,
ping,lowC,downRight,UP,red,r,lowA,Stimuli\red_bar1.png,Stimuli\red_bar1.png,Stimuli\ping.png,midRight,lowB,downLeft,high,midLeft,upLeft,upRight,1,rew_low,z,,,,,0,1,1,92,,,0.4,0.7,exp,m,0,0.38049309997586533,7.16,-7.16,10.14,0,-7.16,-7.16,-10.14,0,-7.16,7.16,7.16,7.16,2,142,30,0,1,2,4,RL,1,M,24,R,2025-04-10_14h34.10.545,RewSL_RL_EEG,
ping,lowC,downRight,DOWN,green,l,lowA,Stimuli\green_bar1.png,Stimuli\green_bar1.png,Stimuli\ping.png,midRight,lowB,downLeft,high,midLeft,upLeft,upRight,1,rew_low,m,,,,,0,2,2,83,,,0.5,0.7,exp,z,0,0.3726083000074141,7.16,-7.16,10.14,0,-7.16,-7.16,-10.14,0,-7.16,7.16,7.16,7.16,2,242,30,0,2,3,4,RL,1,M,24,R,2025-04-10_14h34.10.545,RewSL_RL_EEG,
ping,lowA,midRight,DOWN,green,r,high,Stimuli\green_bar1.png,Stimuli\green_bar1.png,Stimuli\ping.png,midLeft,lowB,downLeft,lowC,downRight,upLeft,upRight,1,rew_low,m,,,,,0,3,3,31,,,0.4,0.7,exp,z,0,0.28917609999189153,10.14,0,-10.14,0,-7.16,-7.16,7.16,-7.16,-7.16,7.16,7.16,7.16,2,222,30,0,3,4,4,RL,1,M,24,R,2025-04-10_14h34.10.545,RewSL_RL_EEG,
ping,high,midLeft,UP,red,r,lowA,Stimuli\red_bar1.png,Stimuli\red_bar1.png,Stimuli\ping.png,midRight,lowB,downLeft,lowC,downRight,upLeft,upRight,1,rew_high,z,,,,,0,4,4,12,,,0.5,0.7,exp,m,0,0.3225681000039913,-10.14,0,10.14,0,-7.16,-7.16,7.16,-7.16,-7.16,7.16,7.16,7.16,2,112,31,0,4,5,4,RL,1,M,24,R,2025-04-10_14h34.10.545,RewSL_RL_EEG,
ping,high,midLeft,UP,green,r,lowA,Stimuli\green_bar1.png,Stimuli\green_bar1.png,Stimuli\ping.png,midRight,lowB,downLeft,lowC,downRight,upLeft,upRight,1,rew_high,z,,,,,0,5,5,13,,,0.5,0.7,exp,m,0,0.24358410004060715,-10.14,0,10.14,0,-7.16,-7.16,7.16,-7.16,-7.16,7.16,7.16,7.16,2,112,31,0,5,6,4,RL,1,M,24,R,2025-04-10_14h34.10.545,RewSL_RL_EEG,
ping,lowA,midRight,UP,green,r,high,Stimuli\green_bar1.png,Stimuli\green_bar1.png,Stimuli\ping.png,midLeft,lowB,downLeft,lowC,downRight,upLeft,upRight,1,rew_low,z,,,,,0,6,6,37,,,0.4,0.7,exp,z,1,0.3065601999987848,10.14,0,-10.14,0,-7.16,-7.16,7.16,-7.16,-7.16,7.16,7.16,7.16,2,122,30,1,6,7,4,RL,1,M,24,R,2025-04-10_14h34.10.545,RewSL_RL_EEG,
ping,high,midLeft,DOWN,green,l,lowA,Stimuli\green_bar1.png,Stimuli\green_bar1.png,Stimuli\ping.png,midRight,lowB,downLeft,lowC,downRight,upLeft,upRight,1,rew_high,m,,,,,0,7,7,11,,,0.4,0.6,exp,z,0,0.42269239999586716,-10.14,0,10.14,0,-7.16,-7.16,7.16,-7.16,-7.16,7.16,7.16,7.16,2,212,31,1,7,8,4,RL,1,M,24,R,2025-04-10_14h34.10.545,RewSL_RL_EEG,
ping,lowA,midRight,DOWN,green,l,high,Stimuli\green_bar1.png,Stimuli\green_bar1.png,Stimuli\ping.png,midLeft,lowB,downLeft,lowC,downRight,upLeft,upRight,1,rew_low,m,,,,,0,8,8,43,,,0.6,0.8,exp,z,0,0.18536140001378953,10.14,0,-10.14,0,-7.16,-7.16,7.16,-7.16,-7.16,7.16,7.16,7.16,2,222,30,1,8,9,4,RL,1,M,24,R,2025-04-10_14h34.10.545,RewSL_RL_EEG,
ping,lowB,downLeft,DOWN,green,r,lowA,Stimuli\green_bar1.png,Stimuli\green_bar1.png,Stimuli\ping.png,midRight,high,midLeft,lowC,downRight,upLeft,upRight,1,rew_low,m,,,,,0,9,9,71,,,0.5,0.7,exp,m,1,0.30612000002292916,-7.16,-7.16,10.14,0,-10.14,0,7.16,-7.16,-7.16,7.16,7.16,7.16,2,232,30,2,9,10,4,RL,1,M,24,R,2025-04-10_14h34.10.545,RewSL_RL_EEG,
ping,high,midLeft,UP,green,l,lowA,Stimuli\green_bar1.png,Stimuli\green_bar1.png,Stimuli\ping.png,midRight,lowB,downLeft,lowC,downRight,upLeft,upRight,1,rew_high,z,,,,,0,10,10,1,,,0.6,0.7,exp,z,1,0.2979160999529995,-10.14,0,10.14,0,-7.16,-7.16,7.16,-7.16,-7.16,7.16,7.16,7.16,2,112,31,102,10,11,4,RL,1,M,24,R,2025-04-10_14h34.10.545,RewSL_RL_EEG,
ping,lowC,downRight,UP,green,r,lowA,Stimuli\green_bar1.png,Stimuli\green_bar1.png,Stimuli\ping.png,midRight,lowB,downLeft,high,midLeft,upLeft,upRight,1,rew_low,z,,,,,0,11,11,93,,,0.4,0.6,exp,m,0,0.3443136000423692,7.16,-7.16,10.14,0,-7.16,-7.16,-10.14,0,-7.16,7.16,7.16,7.16,2,142,30,102,11,12,4,RL,1,M,24,R,2025-04-10_14h34.10.545,RewSL_RL_EEG,
ping,high,midLeft,DOWN,green,r,lowA,Stimuli\green_bar1.png,Stimuli\green_bar1.png,Stimuli\ping.png,midRight,lowB,downLeft,lowC,downRight,upLeft,upRight,1,rew_high,m,,,,,0,12,12,7,,,0.5,0.7,exp,z,0,0.5113757000071928,-10.14,0,10.14,0,-7.16,-7.16,7.16,-7.16,-7.16,7.16,7.16,7.16,2,212,31,102,12,13,4,RL,1,M,24,R,2025-04-10_14h34.10.545,RewSL_RL_EEG,
ping,lowC,downRight,DOWN,red,l,lowA,Stimuli\red_bar1.png,Stimuli\red_bar1.png,Stimuli\ping.png,midRight,lowB,downLeft,high,midLeft,upLeft,upRight,1,rew_low,m,,,,,0,13,13,90,,,0.6,0.7,exp,m,1,0.46842540003126487,7.16,-7.16,10.14,0,-7.16,-7.16,-10.14,0,-7.16,7.16,7.16,7.16,2,242,30,103,13,14,4,RL,1,M,24,R,2025-04-10_14h34.10.545,RewSL_RL_EEG,
ping,lowB,downLeft,UP,red,r,lowA,Stimuli\red_bar1.png,Stimuli\red_bar1.png,Stimuli\ping.png,midRight,high,midLeft,lowC,downRight,upLeft,upRight,1,rew_low,z,,,,,0,14,14,52,,,0.4,0.6,exp,z,1,0.5359558999771252,-7.16,-7.16,10.14,0,-10.14,0,7.16,-7.16,-7.16,7.16,7.16,7.16,2,132,30,104,14,15,4,RL,1,M,24,R,2025-04-10_14h34.10.545,RewSL_RL_EEG,
ping,high,midLeft,DOWN,red,r,lowA,Stimuli\red_bar1.png,Stimuli\red_bar1.png,Stimuli\ping.png,midRight,lowB,downLeft,lowC,downRight,upLeft,upRight,1,rew_high,m,,,,,0,15,15,6,,,0.5,0.7,exp,z,0,0.5480712000280619,-10.14,0,10.14,0,-7.16,-7.16,7.16,-7.16,-7.16,7.16,7.16,7.16,2,212,31,104,15,16,4,RL,1,M,24,R,2025-04-10_14h34.10.545,RewSL_RL_EEG,
ping,lowB,downLeft,DOWN,green,r,lowA,Stimuli\green_bar1.png,Stimuli\green_bar1.png,Stimuli\ping.png,midRight,high,midLeft,lowC,downRight,upLeft,upRight,1,rew_low,m,,,,,0,16,16,63,,,0.5,0.8,exp,m,1,0.4897977000218816,-7.16,-7.16,10.14,0,-10.14,0,7.16,-7.16,-7.16,7.16,7.16,7.16,2,232,30,105,16,17,4,RL,1,M,24,R,2025-04-10_14h34.10.545,RewSL_RL_EEG,
ping,high,midLeft,DOWN,red,r,lowA,Stimuli\red_bar1.png,Stimuli\red_bar1.png,Stimuli\ping.png,midRight,lowB,downLeft,lowC,downRight,upLeft,upRight,1,rew_high,m,,,,,0,17,17,14,,,0.6,0.7,exp,m,1,0.4776980999740772,-10.14,0,10.14,0,-7.16,-7.16,7.16,-7.16,-7.16,7.16,7.16,7.16,2,212,31,205,17,18,4,RL,1,M,24,R,2025-04-10_14h34.10.545,RewSL_RL_EEG,
ping,lowC,downRight,DOWN,green,r,lowA,Stimuli\green_bar1.png,Stimuli\green_bar1.png,Stimuli\ping.png,midRight,lowB,downLeft,high,midLeft,upLeft,upRight,1,rew_low,m,,,,,0,18,18,99,,,0.5,0.7,exp,m,1,0.3727688000071794,7.16,-7.16,10.14,0,-7.16,-7.16,-10.14,0,-7.16,7.16,7.16,7.16,2,242,30,206,18,19,4,RL,1,M,24,R,2025-04-10_14h34.10.545,RewSL_RL_EEG,
ping,high,midLeft,UP,green,r,lowA,Stimuli\green_bar1.png,Stimuli\green_bar1.png,Stimuli\ping.png,midRight,lowB,downLeft,lowC,downRight,upLeft,upRight,1,rew_high,z,,,,,0,19,19,21,,,0.4,0.7,exp,z,1,0.3946316000074148,-10.14,0,10.14,0,-7.16,-7.16,7.16,-7.16,-7.16,7.16,7.16,7.16,2,112,31,306,19,20,4,RL,1,M,24,R,2025-04-10_14h34.10.545,RewSL_RL_EEG,
ping,lowA,midRight,DOWN,red,l,high,Stimuli\red_bar1.png,Stimuli\red_bar1.png,Stimuli\ping.png,midLeft,lowB,downLeft,lowC,downRight,upLeft,upRight,1,rew_low,m,,,,,0,20,20,26,,,0.6,0.6,exp,m,1,0.48602710000704974,10.14,0,-10.14,0,-7.16,-7.16,7.16,-7.16,-7.16,7.16,7.16,7.16,2,222,30,307,20,21,4,RL,1,M,24,R,2025-04-10_14h34.10.545,RewSL_RL_EEG,
ping,lowA,midRight,UP,red,l,high,Stimuli\red_bar1.png,Stimuli\red_bar1.png,Stimuli\ping.png,midLeft,lowB,downLeft,lowC,downRight,upLeft,upRight,1,rew_low,z,,,,,0,21,21,40,,,0.5,0.7,exp,m,0,0.48093299998436123,10.14,0,-10.14,0,-7.16,-7.16,7.16,-7.16,-7.16,7.16,7.16,7.16,2,122,30,307,21,22,4,RL,1,M,24,R,2025-04-10_14h34.10.545,RewSL_RL_EEG,
ping,high,midLeft,UP,red,l,lowA,Stimuli\red_bar1.png,Stimuli\red_bar1.png,Stimuli\ping.png,midRight,lowB,downLeft,lowC,downRight,upLeft,upRight,1,rew_high,z,,,,,0,22,22,16,,,0.5,0.7,exp,m,0,0.5395668999990448,-10.14,0,10.14,0,-7.16,-7.16,7.16,-7.16,-7.16,7.16,7.16,7.16,2,112,31,307,22,23,4,RL,1,M,24,R,2025-04-10_14h34.10.545,RewSL_RL_EEG,
ping,high,midLeft,UP,red,l,lowA,Stimuli\red_bar1.png,Stimuli\red_bar1.png,Stimuli\ping.png,midRight,lowB,downLeft,lowC,downRight,upLeft,upRight,1,rew_high,z,,,,,0,23,23,0,,,0.5,0.6,exp,z,1,0.49832760001299903,-10.14,0,10.14,0,-7.16,-7.16,7.16,-7.16,-7.16,7.16,7.16,7.16,2,112,31,407,23,24,4,RL,1,M,24,R,2025-04-10_14h34.10.545,RewSL_RL_EEG,
ping,lowC,downRight,UP,green,l,lowA,Stimuli\green_bar1.png,Stimuli\green_bar1.png,Stimuli\ping.png,midRight,lowB,downLeft,high,midLeft,upLeft,upRight,1,rew_low,z,,,,,0,24,24,81,,,0.5,0.8,exp,m,0,0.43956200004322454,7.16,-7.16,10.14,0,-7.16,-7.16,-10.14,0,-7.16,7.16,7.16,7.16,2,142,30,407,24,25,4,RL,1,M,24,R,2025-04-10_14h34.10.545,RewSL_RL_EEG,
ping,high,midLeft,UP,red,r,lowA,Stimuli\red_bar1.png,Stimuli\red_bar1.png,Stimuli\ping.png,midRight,lowB,downLeft,lowC,downRight,upLeft,upRight,1,rew_high,z,,,,,0,25,25,4,,,0.6,0.6,exp,z,1,0.47655580000719056,-10.14,0,10.14,0,-7.16,-7.16,7.16,-7.16,-7.16,7.16,7.16,7.16,2,112,31,507,25,26,4,RL,1,M,24,R,2025-04-10_14h34.10.545,RewSL_RL_EEG,
ping,high,midLeft,UP,red,l,lowA,Stimuli\red_bar1.png,Stimuli\red_bar1.png,Stimuli\ping.png,midRight,lowB,downLeft,lowC,downRight,upLeft,upRight,1,rew_high,z,,,,,0,26,26,24,,,0.6,0.8,exp,m,0,0.3640954999718815,-10.14,0,10.14,0,-7.16,-7.16,7.16,-7.16,-7.16,7.16,7.16,7.16,2,112,31,507,26,27,4,RL,1,M,24,R,2025-04-10_14h34.10.545,RewSL_RL_EEG,
ping,lowC,downRight,DOWN,red,r,lowA,Stimuli\red_bar1.png,Stimuli\red_bar1.png,Stimuli\ping.png,midRight,lowB,downLeft,high,midLeft,upLeft,upRight,1,rew_low,m,,,,,0,27,27,86,,,0.5,0.7,exp,z,0,0.5351639000000432,7.16,-7.16,10.14,0,-7.16,-7.16,-10.14,0,-7.16,7.16,7.16,7.16,2,242,30,507,27,28,4,RL,1,M,24,R,2025-04-10_14h34.10.545,RewSL_RL_EEG,
ping,lowB,downLeft,UP,red,r,lowA,Stimuli\red_bar1.png,Stimuli\red_bar1.png,Stimuli\ping.png,midRight,high,midLeft,lowC,downRight,upLeft,upRight,1,rew_low,z,,,,,0,28,28,60,,,0.5,0.7,exp,z,1,0.509804500034079,-7.16,-7.16,10.14,0,-10.14,0,7.16,-7.16,-7.16,7.16,7.16,7.16,2,132,30,508,28,29,4,RL,1,M,24,R,2025-04-10_14h34.10.545,RewSL_RL_EEG,
ping,lowA,midRight,DOWN,red,l,high,Stimuli\red_bar1.png,Stimuli\red_bar1.png,Stimuli\ping.png,midLeft,lowB,downLeft,lowC,downRight,upLeft,upRight,1,rew_low,m,,,,,0,29,29,42,,,0.5,0.8,exp,m,1,0.39335319999372587,10.14,0,-10.14,0,-7.16,-7.16,7.16,-7.16,-7.16,7.16,7.16,7.16,2,222,30,509,29,30,4,RL,1,M,24,R,2025-04-10_14h34.10.545,RewSL_RL_EEG,
ping,lowC,downRight,UP,red,l,lowA,Stimuli\red_bar1.png,Stimuli\red_bar1.png,Stimuli\ping.png,midRight,lowB,downLeft,high,midLeft,upLeft,upRight,1,rew_low,z,,,,,0,30,30,96,,,0.5,0.7,exp,z,1,0.4437189999734983,7.16,-7.16,10.14,0,-7.16,-7.16,-10.14,0,-7.16,7.16,7.16,7.16,2,142,30,510,30,31,4,RL,1,M,24,R,2025-04-10_14h34.10.545,RewSL_RL_EEG,
ping,lowC,downRight,DOWN,red,l,lowA,Stimuli\red_bar1.png,Stimuli\red_bar1.png,Stimuli\ping.png,midRight,lowB,downLeft,high,midLeft,upLeft,upRight,1,rew_low,m,,,,,0,31,31,82,,,0.4,0.8,exp,m,1,0.5895595999900252,7.16,-7.16,10.14,0,-7.16,-7.16,-10.14,0,-7.16,7.16,7.16,7.16,2,242,30,511,31,32,4,RL,1,M,24,R,2025-04-10_14h34.10.545,RewSL_RL_EEG,
ping,lowC,downRight,DOWN,red,r,lowA,Stimuli\red_bar1.png,Stimuli\red_bar1.png,Stimuli\ping.png,midRight,lowB,downLeft,high,midLeft,upLeft,upRight,1,rew_low,m,,,,,0,32,32,98,,,0.5,0.8,exp,m,1,0.589580699976068,7.16,-7.16,10.14,0,-7.16,-7.16,-10.14,0,-7.16,7.16,7.16,7.16,2,242,30,512,32,33,4,RL,1,M,24,R,2025-04-10_14h34.10.545,RewSL_RL_EEG,
ping,lowA,midRight,UP,red,r,high,Stimuli\red_bar1.png,Stimuli\red_bar1.png,Stimuli\ping.png,midLeft,lowB,downLeft,lowC,downRight,upLeft,upRight,1,rew_low,z,,,,,0,33,33,44,,,0.5,0.7,exp,m,0,0.5810498999780975,10.14,0,-10.14,0,-7.16,-7.16,7.16,-7.16,-7.16,7.16,7.16,7.16,2,122,30,512,33,34,4,RL,1,M,24,R,2025-04-10_14h34.10.545,RewSL_RL_EEG,
ping,high,midLeft,DOWN,green,l,lowA,Stimuli\green_bar1.png,Stimuli\green_bar1.png,Stimuli\ping.png,midRight,lowB,downLeft,lowC,downRight,upLeft,upRight,1,rew_high,m,,,,,0,34,34,3,,,0.4,0.6,exp,m,1,0.6238936000154354,-10.14,0,10.14,0,-7.16,-7.16,7.16,-7.16,-7.16,7.16,7.16,7.16,2,212,31,612,34,35,4,RL,1,M,24,R,2025-04-10_14h34.10.545,RewSL_RL_EEG,
ping,high,midLeft,DOWN,red,l,lowA,Stimuli\red_bar1.png,Stimuli\red_bar1.png,Stimuli\ping.png,midRight,lowB,downLeft,lowC,downRight,upLeft,upRight,1,rew_high,m,,,,,0,35,35,10,,,0.5,0.6,exp,z,0,0.4764854999957606,-10.14,0,10.14,0,-7.16,-7.16,7.16,-7.16,-7.16,7.16,7.16,7.16,2,212,31,612,35,36,4,RL,1,M,24,R,2025-04-10_14h34.10.545,RewSL_RL_EEG,
ping,lowB,downLeft,UP,green,r,lowA,Stimuli\green_bar1.png,Stimuli\green_bar1.png,Stimuli\ping.png,midRight,high,midLeft,lowC,downRight,upLeft,upRight,1,rew_low,z,,,,,0,36,36,61,,,0.4,0.8,exp,z,1,0.5054017000366002,-7.16,-7.16,10.14,0,-10.14,0,7.16,-7.16,-7.16,7.16,7.16,7.16,2,132,30,613,36,37,4,RL,1,M,24,R,2025-04-10_14h34.10.545,RewSL_RL_EEG,
ping,lowB,downLeft,UP,red,l,lowA,Stimuli\red_bar1.png,Stimuli\red_bar1.png,Stimuli\ping.png,midRight,high,midLeft,lowC,downRight,upLeft,upRight,1,rew_low,z,,,,,0,37,37,72,,,0.5,0.7,exp,m,0,0.3646647999994457,-7.16,-7.16,10.14,0,-10.14,0,7.16,-7.16,-7.16,7.16,7.16,7.16,2,132,30,613,37,38,4,RL,1,M,24,R,2025-04-10_14h34.10.545,RewSL_RL_EEG,
ping,high,midLeft,UP,green,l,lowA,Stimuli\green_bar1.png,Stimuli\green_bar1.png,Stimuli\ping.png,midRight,lowB,downLeft,lowC,downRight,upLeft,upRight,1,rew_high,z,,,,,0,38,38,9,,,0.5,0.6,exp,m,0,0.49004969996167347,-10.14,0,10.14,0,-7.16,-7.16,7.16,-7.16,-7.16,7.16,7.16,7.16,2,112,31,613,38,39,4,RL,1,M,24,R,2025-04-10_14h34.10.545,RewSL_RL_EEG,
ping,lowA,midRight,UP,red,r,high,Stimuli\red_bar1.png,Stimuli\red_bar1.png,Stimuli\ping.png,midLeft,lowB,downLeft,lowC,downRight,upLeft,upRight,1,rew_low,z,,,,,0,39,39,28,,,0.6,0.6,exp,z,1,0.38947699998971075,10.14,0,-10.14,0,-7.16,-7.16,7.16,-7.16,-7.16,7.16,7.16,7.16,2,122,30,614,39,40,4,RL,1,M,24,R,2025-04-10_14h34.10.545,RewSL_RL_EEG,
ping,lowA,midRight,UP,green,r,high,Stimuli\green_bar1.png,Stimuli\green_bar1.png,Stimuli\ping.png,midLeft,lowB,downLeft,lowC,downRight,upLeft,upRight,1,rew_low,z,,,,,0,40,40,29,,,0.6,0.6,exp,m,0,0.46447580005042255,10.14,0,-10.14,0,-7.16,-7.16,7.16,-7.16,-7.16,7.16,7.16,7.16,2,122,30,614,40,41,4,RL,1,M,24,R,2025-04-10_14h34.10.545,RewSL_RL_EEG,
ping,lowC,downRight,DOWN,green,r,lowA,Stimuli\green_bar1.png,Stimuli\green_bar1.png,Stimuli\ping.png,midRight,lowB,downLeft,high,midLeft,upLeft,upRight,1,rew_low,m,,,,,0,41,41,87,,,0.5,0.8,exp,z,0,0.24379839998437092,7.16,-7.16,10.14,0,-7.16,-7.16,-10.14,0,-7.16,7.16,7.16,7.16,2,242,30,614,41,42,4,RL,1,M,24,R,2025-04-10_14h34.10.545,RewSL_RL_EEG,
ping,lowB,downLeft,DOWN,green,l,lowA,Stimuli\green_bar1.png,Stimuli\green_bar1.png,Stimuli\ping.png,midRight,high,midLeft,lowC,downRight,upLeft,upRight,1,rew_low,m,,,,,0,42,42,67,,,0.6,0.7,exp,m,1,0.44354859995655715,-7.16,-7.16,10.14,0,-10.14,0,7.16,-7.16,-7.16,7.16,7.16,7.16,2,232,30,615,42,43,4,RL,1,M,24,R,2025-04-10_14h34.10.545,RewSL_RL_EEG,
ping,lowC,downRight,UP,red,r,lowA,Stimuli\red_bar1.png,Stimuli\red_bar1.png,Stimuli\ping.png,midRight,lowB,downLeft,high,midLeft,upLeft,upRight,1,rew_low,z,,,,,0,43,43,84,,,0.5,0.7,exp,m,0,0.39295200002379715,7.16,-7.16,10.14,0,-7.16,-7.16,-10.14,0,-7.16,7.16,7.16,7.16,2,142,30,615,43,44,4,RL,1,M,24,R,2025-04-10_14h34.10.545,RewSL_RL_EEG,
ping,lowA,midRight,DOWN,red,l,high,Stimuli\red_bar1.png,Stimuli\red_bar1.png,Stimuli\ping.png,midLeft,lowB,downLeft,lowC,downRight,upLeft,upRight,1,rew_low,m,,,,,0,44,44,34,,,0.6,0.7,exp,m,1,0.48915079998550937,10.14,0,-10.14,0,-7.16,-7.16,7.16,-7.16,-7.16,7.16,7.16,7.16,2,222,30,616,44,45,4,RL,1,M,24,R,2025-04-10_14h34.10.545,RewSL_RL_EEG,
ping,lowA,midRight,DOWN,red,r,high,Stimuli\red_bar1.png,Stimuli\red_bar1.png,Stimuli\ping.png,midLeft,lowB,downLeft,lowC,downRight,upLeft,upRight,1,rew_low,m,,,,,0,45,45,30,,,0.6,0.8,exp,z,0,0.35250539996195585,10.14,0,-10.14,0,-7.16,-7.16,7.16,-7.16,-7.16,7.16,7.16,7.16,2,222,30,616,45,46,4,RL,1,M,24,R,2025-04-10_14h34.10.545,RewSL_RL_EEG,
ping,lowC,downRight,UP,green,r,lowA,Stimuli\green_bar1.png,Stimuli\green_bar1.png,Stimuli\ping.png,midRight,lowB,downLeft,high,midLeft,upLeft,upRight,1,rew_low,z,,,,,0,46,46,85,,,0.5,0.7,exp,m,0,0.5854577000136487,7.16,-7.16,10.14,0,-7.16,-7.16,-10.14,0,-7.16,7.16,7.16,7.16,2,142,30,616,46,47,4,RL,1,M,24,R,2025-04-10_14h34.10.545,RewSL_RL_EEG,
ping,lowA,midRight,DOWN,green,r,high,Stimuli\green_bar1.png,Stimuli\green_bar1.png,Stimuli\ping.png,midLeft,lowB,downLeft,lowC,downRight,upLeft,upRight,1,rew_low,m,,,,,0,47,47,47,,,0.6,0.7,exp,m,1,0.4937746999785304,10.14,0,-10.14,0,-7.16,-7.16,7.16,-7.16,-7.16,7.16,7.16,7.16,2,222,30,617,47,48,4,RL,1,M,24,R,2025-04-10_14h34.10.545,RewSL_RL_EEG,
ping,lowB,downLeft,DOWN,red,r,lowA,Stimuli\red_bar1.png,Stimuli\red_bar1.png,Stimuli\ping.png,midRight,high,midLeft,lowC,downRight,upLeft,upRight,1,rew_low,m,,,,,0,48,48,70,,,0.4,0.8,exp,z,0,0.46009319997392595,-7.16,-7.16,10.14,0,-10.14,0,7.16,-7.16,-7.16,7.16,7.16,7.16,2,232,30,617,48,49,4,RL,1,M,24,R,2025-04-10_14h34.10.545,RewSL_RL_EEG,
ping,lowA,midRight,DOWN,green,r,high,Stimuli\green_bar1.png,Stimuli\green_bar1.png,Stimuli\ping.png,midLeft,lowB,downLeft,lowC,downRight,upLeft,upRight,1,rew_low,m,,,,,0,49,49,39,,,0.4,0.8,exp,m,1,0.4235165999853052,10.14,0,-10.14,0,-7.16,-7.16,7.16,-7.16,-7.16,7.16,7.16,7.16,2,222,30,618,49,50,4,RL,1,M,24,R,2025-04-10_14h34.10.545,RewSL_RL_EEG,
ping,lowA,midRight,UP,green,l,high,Stimuli\green_bar1.png,Stimuli\green_bar1.png,Stimuli\ping.png,midLeft,lowB,downLeft,lowC,downRight,upLeft,upRight,1,rew_low,z,,,,,0,50,50,33,,,0.5,0.7,exp,z,1,0.43167099996935576,10.14,0,-10.14,0,-7.16,-7.16,7.16,-7.16,-7.16,7.16,7.16,7.16,2,122,30,619,50,51,4,RL,1,M,24,R,2025-04-10_14h34.10.545,RewSL_RL_EEG,
ping,lowB,downLeft,DOWN,green,l,lowA,Stimuli\green_bar1.png,Stimuli\green_bar1.png,Stimuli\ping.png,midRight,high,midLeft,lowC,downRight,upLeft,upRight,1,rew_low,m,,,,,0,51,51,59,,,0.5,0.7,exp,m,1,0.5028603000100702,-7.16,-7.16,10.14,0,-10.14,0,7.16,-7.16,-7.16,7.16,7.16,7.16,2,232,30,620,51,52,4,RL,1,M,24,R,2025-04-10_14h34.10.545,RewSL_RL_EEG,
ping,lowB,downLeft,UP,green,r,lowA,Stimuli\green_bar1.png,Stimuli\green_bar1.png,Stimuli\ping.png,midRight,high,midLeft,lowC,downRight,upLeft,upRight,1,rew_low,z,,,,,0,52,52,69,,,0.4,0.7,exp,z,1,0.3236278999829665,-7.16,-7.16,10.14,0,-10.14,0,7.16,-7.16,-7.16,7.16,7.16,7.16,2,132,30,621,52,53,4,RL,1,M,24,R,2025-04-10_14h34.10.545,RewSL_RL_EEG,
ping,lowC,downRight,DOWN,green,l,lowA,Stimuli\green_bar1.png,Stimuli\green_bar1.png,Stimuli\ping.png,midRight,lowB,downLeft,high,midLeft,upLeft,upRight,1,rew_low,m,,,,,0,53,53,91,,,0.5,0.6,exp,m,1,0.38585359998978674,7.16,-7.16,10.14,0,-7.16,-7.16,-10.14,0,-7.16,7.16,7.16,7.16,2,242,30,622,53,54,4,RL,1,M,24,R,2025-04-10_14h34.10.545,RewSL_RL_EEG,
ping,lowC,downRight,UP,green,l,lowA,Stimuli\green_bar1.png,Stimuli\green_bar1.png,Stimuli\ping.png,midRight,lowB,downLeft,high,midLeft,upLeft,upRight,1,rew_low,z,,,,,0,54,54,97,,,0.6,0.7,exp,m,0,0.3016256000264548,7.16,-7.16,10.14,0,-7.16,-7.16,-10.14,0,-7.16,7.16,7.16,7.16,2,142,30,622,54,55,4,RL,1,M,24,R,2025-04-10_14h34.10.545,RewSL_RL_EEG,
ping,high,midLeft,DOWN,red,r,lowA,Stimuli\red_bar1.png,Stimuli\red_bar1.png,Stimuli\ping.png,midRight,lowB,downLeft,lowC,downRight,upLeft,upRight,1,rew_high,m,,,,,0,55,55,22,,,0.5,0.7,exp,z,0,0.38918340002419427,-10.14,0,10.14,0,-7.16,-7.16,7.16,-7.16,-7.16,7.16,7.16,7.16,2,212,31,622,55,56,4,RL,1,M,24,R,2025-04-10_14h34.10.545,RewSL_RL_EEG,
ping,lowA,midRight,UP,red,l,high,Stimuli\red_bar1.png,Stimuli\red_bar1.png,Stimuli\ping.png,midLeft,lowB,downLeft,lowC,downRight,upLeft,upRight,1,rew_low,z,,,,,0,56,56,32,,,0.4,0.6,exp,m,0,0.4477170000318438,10.14,0,-10.14,0,-7.16,-7.16,7.16,-7.16,-7.16,7.16,7.16,7.16,2,122,30,622,56,57,4,RL,1,M,24,R,2025-04-10_14h34.10.545,RewSL_RL_EEG,
ping,lowB,downLeft,UP,red,r,lowA,Stimuli\red_bar1.png,Stimuli\red_bar1.png,Stimuli\ping.png,midRight,high,midLeft,lowC,downRight,upLeft,upRight,1,rew_low,z,,,,,0,57,57,68,,,0.5,0.6,exp,m,0,0.4892816999927163,-7.16,-7.16,10.14,0,-10.14,0,7.16,-7.16,-7.16,7.16,7.16,7.16,2,132,30,622,57,58,4,RL,1,M,24,R,2025-04-10_14h34.10.545,RewSL_RL_EEG,
ping,lowC,downRight,UP,green,l,lowA,Stimuli\green_bar1.png,Stimuli\green_bar1.png,Stimuli\ping.png,midRight,lowB,downLeft,high,midLeft,upLeft,upRight,1,rew_low,z,,,,,0,58,58,89,,,0.6,0.6,exp,m,0,0.589444299985189,7.16,-7.16,10.14,0,-7.16,-7.16,-10.14,0,-7.16,7.16,7.16,7.16,2,142,30,622,58,59,4,RL,1,M,24,R,2025-04-10_14h34.10.545,RewSL_RL_EEG,
ping,high,midLeft,UP,red,l,lowA,Stimuli\red_bar1.png,Stimuli\red_bar1.png,Stimuli\ping.png,midRight,lowB,downLeft,lowC,downRight,upLeft,upRight,1,rew_high,z,,,,,0,59,59,8,,,0.6,0.8,exp,z,1,0.4770219000056386,-10.14,0,10.14,0,-7.16,-7.16,7.16,-7.16,-7.16,7.16,7.16,7.16,2,112,31,722,59,60,4,RL,1,M,24,R,2025-04-10_14h34.10.545,RewSL_RL_EEG,
ping,high,midLeft,UP,green,l,lowA,Stimuli\green_bar1.png,Stimuli\green_bar1.png,Stimuli\ping.png,midRight,lowB,downLeft,lowC,downRight,upLeft,upRight,1,rew_high,z,,,,,0,60,60,17,,,0.4,0.7,exp,z,1,0.4567873000050895,-10.14,0,10.14,0,-7.16,-7.16,7.16,-7.16,-7.16,7.16,7.16,7.16,2,112,31,822,60,61,4,RL,1,M,24,R,2025-04-10_14h34.10.545,RewSL_RL_EEG,
ping,lowC,downRight,UP,red,r,lowA,Stimuli\red_bar1.png,Stimuli\red_bar1.png,Stimuli\ping.png,midRight,lowB,downLeft,high,midLeft,upLeft,upRight,1,rew_low,z,,,,,0,61,61,76,,,0.5,0.7,exp,m,0,0.38942550000501797,7.16,-7.16,10.14,0,-7.16,-7.16,-10.14,0,-7.16,7.16,7.16,7.16,2,142,30,822,61,62,4,RL,1,M,24,R,2025-04-10_14h34.10.545,RewSL_RL_EEG,
ping,lowB,downLeft,DOWN,red,r,lowA,Stimuli\red_bar1.png,Stimuli\red_bar1.png,Stimuli\ping.png,midRight,high,midLeft,lowC,downRight,upLeft,upRight,1,rew_low,m,,,,,0,62,62,62,,,0.4,0.7,exp,m,1,0.4353158999583684,-7.16,-7.16,10.14,0,-10.14,0,7.16,-7.16,-7.16,7.16,7.16,7.16,2,232,30,823,62,63,4,RL,1,M,24,R,2025-04-10_14h34.10.545,RewSL_RL_EEG,
ping,high,midLeft,DOWN,green,l,lowA,Stimuli\green_bar1.png,Stimuli\green_bar1.png,Stimuli\ping.png,midRight,lowB,downLeft,lowC,downRight,upLeft,upRight,1,rew_high,m,,,,,0,63,63,19,,,0.4,0.8,exp,z,0,0.34795210004085675,-10.14,0,10.14,0,-7.16,-7.16,7.16,-7.16,-7.16,7.16,7.16,7.16,2,212,31,823,63,64,4,RL,1,M,24,R,2025-04-10_14h34.10.545,RewSL_RL_EEG,
ping,lowB,downLeft,UP,green,l,lowA,Stimuli\green_bar1.png,Stimuli\green_bar1.png,Stimuli\ping.png,midRight,high,midLeft,lowC,downRight,upLeft,upRight,1,rew_low,z,,,,,0,64,64,65,,,0.4,0.7,exp,z,1,0.4898916000383906,-7.16,-7.16,10.14,0,-10.14,0,7.16,-7.16,-7.16,7.16,7.16,7.16,2,132,30,824,64,65,4,RL,1,M,24,R,2025-04-10_14h34.10.545,RewSL_RL_EEG,
ping,lowC,downRight,DOWN,green,r,lowA,Stimuli\green_bar1.png,Stimuli\green_bar1.png,Stimuli\ping.png,midRight,lowB,downLeft,high,midLeft,upLeft,upRight,1,rew_low,m,,,,,0,65,65,79,,,0.6,0.6,exp,z,0,0.42274509998969734,7.16,-7.16,10.14,0,-7.16,-7.16,-10.14,0,-7.16,7.16,7.16,7.16,2,242,30,824,65,66,4,RL,1,M,24,R,2025-04-10_14h34.10.545,RewSL_RL_EEG,
ping,lowC,downRight,UP,green,r,lowA,Stimuli\green_bar1.png,Stimuli\green_bar1.png,Stimuli\ping.png,midRight,lowB,downLeft,high,midLeft,upLeft,upRight,1,rew_low,z,,,,,0,66,66,77,,,0.5,0.7,exp,m,0,0.4144304000074044,7.16,-7.16,10.14,0,-7.16,-7.16,-10.14,0,-7.16,7.16,7.16,7.16,2,142,30,824,66,67,4,RL,1,M,24,R,2025-04-10_14h34.10.545,RewSL_RL_EEG,
ping,lowB,downLeft,DOWN,green,l,lowA,Stimuli\green_bar1.png,Stimuli\green_bar1.png,Stimuli\ping.png,midRight,high,midLeft,lowC,downRight,upLeft,upRight,1,rew_low,m,,,,,0,67,67,51,,,0.6,0.7,exp,z,0,0.5155264000059105,-7.16,-7.16,10.14,0,-10.14,0,7.16,-7.16,-7.16,7.16,7.16,7.16,2,232,30,824,67,68,4,RL,1,M,24,R,2025-04-10_14h34.10.545,RewSL_RL_EEG,
ping,lowA,midRight,DOWN,green,l,high,Stimuli\green_bar1.png,Stimuli\green_bar1.png,Stimuli\ping.png,midLeft,lowB,downLeft,lowC,downRight,upLeft,upRight,1,rew_low,m,,,,,0,68,68,27,,,0.5,0.7,exp,m,1,0.3644427999970503,10.14,0,-10.14,0,-7.16,-7.16,7.16,-7.16,-7.16,7.16,7.16,7.16,2,222,30,825,68,69,4,RL,1,M,24,R,2025-04-10_14h34.10.545,RewSL_RL_EEG,
ping,lowA,midRight,DOWN,red,r,high,Stimuli\red_bar1.png,Stimuli\red_bar1.png,Stimuli\ping.png,midLeft,lowB,downLeft,lowC,downRight,upLeft,upRight,1,rew_low,m,,,,,0,69,69,38,,,0.5,0.6,exp,m,1,0.4400829000514932,10.14,0,-10.14,0,-7.16,-7.16,7.16,-7.16,-7.16,7.16,7.16,7.16,2,222,30,826,69,70,4,RL,1,M,24,R,2025-04-10_14h34.10.545,RewSL_RL_EEG,
ping,high,midLeft,DOWN,green,r,lowA,Stimuli\green_bar1.png,Stimuli\green_bar1.png,Stimuli\ping.png,midRight,lowB,downLeft,lowC,downRight,upLeft,upRight,1,rew_high,m,,,,,0,70,70,15,,,0.4,0.7,exp,z,0,0.5535078999819234,-10.14,0,10.14,0,-7.16,-7.16,7.16,-7.16,-7.16,7.16,7.16,7.16,2,212,31,826,70,71,4,RL,1,M,24,R,2025-04-10_14h34.10.545,RewSL_RL_EEG,
ping,high,midLeft,DOWN,red,l,lowA,Stimuli\red_bar1.png,Stimuli\red_bar1.png,Stimuli\ping.png,midRight,lowB,downLeft,lowC,downRight,upLeft,upRight,1,rew_high,m,,,,,0,71,71,2,,,0.5,0.8,exp,z,0,0.4600665000034496,-10.14,0,10.14,0,-7.16,-7.16,7.16,-7.16,-7.16,7.16,7.16,7.16,2,212,31,826,71,72,4,RL,1,M,24,R,2025-04-10_14h34.10.545,RewSL_RL_EEG,
ping,lowC,downRight,DOWN,red,r,lowA,Stimuli\red_bar1.png,Stimuli\red_bar1.png,Stimuli\ping.png,midRight,lowB,downLeft,high,midLeft,upLeft,upRight,1,rew_low,m,,,,,0,72,72,78,,,0.4,0.7,exp,z,0,0.6474080999614671,7.16,-7.16,10.14,0,-7.16,-7.16,-10.14,0,-7.16,7.16,7.16,7.16,2,242,30,826,72,73,4,RL,1,M,24,R,2025-04-10_14h34.10.545,RewSL_RL_EEG,
ping,lowB,downLeft,DOWN,red,l,lowA,Stimuli\red_bar1.png,Stimuli\red_bar1.png,Stimuli\ping.png,midRight,high,midLeft,lowC,downRight,upLeft,upRight,1,rew_low,m,,,,,0,73,73,74,,,0.6,0.8,exp,m,1,0.5104823000147007,-7.16,-7.16,10.14,0,-10.14,0,7.16,-7.16,-7.16,7.16,7.16,7.16,2,232,30,827,73,74,4,RL,1,M,24,R,2025-04-10_14h34.10.545,RewSL_RL_EEG,
ping,lowB,downLeft,UP,green,r,lowA,Stimuli\green_bar1.png,Stimuli\green_bar1.png,Stimuli\ping.png,midRight,high,midLeft,lowC,downRight,upLeft,upRight,1,rew_low,z,,,,,0,74,74,53,,,0.4,0.8,exp,z,1,0.4391423999913968,-7.16,-7.16,10.14,0,-10.14,0,7.16,-7.16,-7.16,7.16,7.16,7.16,2,132,30,828,74,75,4,RL,1,M,24,R,2025-04-10_14h34.10.545,RewSL_RL_EEG,
ping,lowB,downLeft,DOWN,red,r,lowA,Stimuli\red_bar1.png,Stimuli\red_bar1.png,Stimuli\ping.png,midRight,high,midLeft,lowC,downRight,upLeft,upRight,1,rew_low,m,,,,,0,75,75,54,,,0.6,0.7,exp,z,0,0.37615279998863116,-7.16,-7.16,10.14,0,-10.14,0,7.16,-7.16,-7.16,7.16,7.16,7.16,2,232,30,828,75,76,4,RL,1,M,24,R,2025-04-10_14h34.10.545,RewSL_RL_EEG,
ping,lowC,downRight,UP,red,l,lowA,Stimuli\red_bar1.png,Stimuli\red_bar1.png,Stimuli\ping.png,midRight,lowB,downLeft,high,midLeft,upLeft,upRight,1,rew_low,z,,,,,0,76,76,88,,,0.4,0.7,exp,z,1,0.5023119000252336,7.16,-7.16,10.14,0,-7.16,-7.16,-10.14,0,-7.16,7.16,7.16,7.16,2,142,30,829,76,77,4,RL,1,M,24,R,2025-04-10_14h34.10.545,RewSL_RL_EEG,
ping,lowC,downRight,DOWN,green,l,lowA,Stimuli\green_bar1.png,Stimuli\green_bar1.png,Stimuli\ping.png,midRight,lowB,downLeft,high,midLeft,upLeft,upRight,1,rew_low,m,,,,,0,77,77,75,,,0.5,0.7,exp,m,1,0.6060028999927454,7.16,-7.16,10.14,0,-7.16,-7.16,-10.14,0,-7.16,7.16,7.16,7.16,2,242,30,830,77,78,4,RL,1,M,24,R,2025-04-10_14h34.10.545,RewSL_RL_EEG,
ping,high,midLeft,DOWN,green,r,lowA,Stimuli\green_bar1.png,Stimuli\green_bar1.png,Stimuli\ping.png,midRight,lowB,downLeft,lowC,downRight,upLeft,upRight,1,rew_high,m,,,,,0,78,78,23,,,0.6,0.8,exp,z,0,0.2644323999993503,-10.14,0,10.14,0,-7.16,-7.16,7.16,-7.16,-7.16,7.16,7.16,7.16,2,212,31,830,78,79,4,RL,1,M,24,R,2025-04-10_14h34.10.545,RewSL_RL_EEG,
ping,lowA,midRight,UP,green,r,high,Stimuli\green_bar1.png,Stimuli\green_bar1.png,Stimuli\ping.png,midLeft,lowB,downLeft,lowC,downRight,upLeft,upRight,1,rew_low,z,,,,,0,79,79,45,,,0.4,0.7,exp,m,0,0.3027107000234537,10.14,0,-10.14,0,-7.16,-7.16,7.16,-7.16,-7.16,7.16,7.16,7.16,2,122,30,830,79,80,4,RL,1,M,24,R,2025-04-10_14h34.10.545,RewSL_RL_EEG,
ping,lowB,downLeft,UP,green,l,lowA,Stimuli\green_bar1.png,Stimuli\green_bar1.png,Stimuli\ping.png,midRight,high,midLeft,lowC,downRight,upLeft,upRight,1,rew_low,z,,,,,0,80,80,73,,,0.6,0.7,exp,z,1,0.28957960003754124,-7.16,-7.16,10.14,0,-10.14,0,7.16,-7.16,-7.16,7.16,7.16,7.16,2,132,30,831,80,81,4,RL,1,M,24,R,2025-04-10_14h34.10.545,RewSL_RL_EEG,
ping,lowA,midRight,UP,green,l,high,Stimuli\green_bar1.png,Stimuli\green_bar1.png,Stimuli\ping.png,midLeft,lowB,downLeft,lowC,downRight,upLeft,upRight,1,rew_low,z,,,,,0,81,81,41,,,0.5,0.6,exp,m,0,0.464355300005991,10.14,0,-10.14,0,-7.16,-7.16,7.16,-7.16,-7.16,7.16,7.16,7.16,2,122,30,831,81,82,4,RL,1,M,24,R,2025-04-10_14h34.10.545,RewSL_RL_EEG,
ping,lowA,midRight,UP,red,l,high,Stimuli\red_bar1.png,Stimuli\red_bar1.png,Stimuli\ping.png,midLeft,lowB,downLeft,lowC,downRight,upLeft,upRight,1,rew_low,z,,,,,0,82,82,48,,,0.4,0.7,exp,z,1,0.32001050002872944,10.14,0,-10.14,0,-7.16,-7.16,7.16,-7.16,-7.16,7.16,7.16,7.16,2,122,30,832,82,83,4,RL,1,M,24,R,2025-04-10_14h34.10.545,RewSL_RL_EEG,
ping,high,midLeft,UP,red,r,lowA,Stimuli\red_bar1.png,Stimuli\red_bar1.png,Stimuli\ping.png,midRight,lowB,downLeft,lowC,downRight,upLeft,upRight,1,rew_high,z,,,,,0,83,83,20,,,0.6,0.8,exp,z,1,0.34820430004037917,-10.14,0,10.14,0,-7.16,-7.16,7.16,-7.16,-7.16,7.16,7.16,7.16,2,112,31,932,83,84,4,RL,1,M,24,R,2025-04-10_14h34.10.545,RewSL_RL_EEG,
ping,lowA,midRight,DOWN,red,r,high,Stimuli\red_bar1.png,Stimuli\red_bar1.png,Stimuli\ping.png,midLeft,lowB,downLeft,lowC,downRight,upLeft,upRight,1,rew_low,m,,,,,0,84,84,46,,,0.6,0.6,exp,z,0,0.344583599944599,10.14,0,-10.14,0,-7.16,-7.16,7.16,-7.16,-7.16,7.16,7.16,7.16,2,222,30,932,84,85,4,RL,1,M,24,R,2025-04-10_14h34.10.545,RewSL_RL_EEG,
ping,lowB,downLeft,DOWN,green,r,lowA,Stimuli\green_bar1.png,Stimuli\green_bar1.png,Stimuli\ping.png,midRight,high,midLeft,lowC,downRight,upLeft,upRight,1,rew_low,m,,,,,0,85,85,55,,,0.4,0.7,exp,m,1,0.3886120000388473,-7.16,-7.16,10.14,0,-10.14,0,7.16,-7.16,-7.16,7.16,7.16,7.16,2,232,30,933,85,86,4,RL,1,M,24,R,2025-04-10_14h34.10.545,RewSL_RL_EEG,
ping,lowB,downLeft,DOWN,red,l,lowA,Stimuli\red_bar1.png,Stimuli\red_bar1.png,Stimuli\ping.png,midRight,high,midLeft,lowC,downRight,upLeft,upRight,1,rew_low,m,,,,,0,86,86,66,,,0.5,0.6,exp,z,0,0.36836680001579225,-7.16,-7.16,10.14,0,-10.14,0,7.16,-7.16,-7.16,7.16,7.16,7.16,2,232,30,933,86,87,4,RL,1,M,24,R,2025-04-10_14h34.10.545,RewSL_RL_EEG,
ping,lowC,downRight,DOWN,red,r,lowA,Stimuli\red_bar1.png,Stimuli\red_bar1.png,Stimuli\ping.png,midRight,lowB,downLeft,high,midLeft,upLeft,upRight,1,rew_low,m,,,,,0,87,87,94,,,0.4,0.6,exp,m,1,0.3891787999891676,7.16,-7.16,10.14,0,-7.16,-7.16,-10.14,0,-7.16,7.16,7.16,7.16,2,242,30,934,87,88,4,RL,1,M,24,R,2025-04-10_14h34.10.545,RewSL_RL_EEG,
ping,lowC,downRight,DOWN,green,r,lowA,Stimuli\green_bar1.png,Stimuli\green_bar1.png,Stimuli\ping.png,midRight,lowB,downLeft,high,midLeft,upLeft,upRight,1,rew_low,m,,,,,0,88,88,95,,,0.5,0.8,exp,m,1,0.3101326000178233,7.16,-7.16,10.14,0,-7.16,-7.16,-10.14,0,-7.16,7.16,7.16,7.16,2,242,30,935,88,89,4,RL,1,M,24,R,2025-04-10_14h34.10.545,RewSL_RL_EEG,
ping,lowA,midRight,UP,green,l,high,Stimuli\green_bar1.png,Stimuli\green_bar1.png,Stimuli\ping.png,midLeft,lowB,downLeft,lowC,downRight,upLeft,upRight,1,rew_low,z,,,,,0,89,89,25,,,0.5,0.8,exp,m,0,0.21000319998711348,10.14,0,-10.14,0,-7.16,-7.16,7.16,-7.16,-7.16,7.16,7.16,7.16,2,122,30,935,89,90,4,RL,1,M,24,R,2025-04-10_14h34.10.545,RewSL_RL_EEG,
ping,high,midLeft,UP,green,r,lowA,Stimuli\green_bar1.png,Stimuli\green_bar1.png,Stimuli\ping.png,midRight,lowB,downLeft,lowC,downRight,upLeft,upRight,1,rew_high,z,,,,,0,90,90,5,,,0.4,0.8,exp,m,0,0.2652726999949664,-10.14,0,10.14,0,-7.16,-7.16,7.16,-7.16,-7.16,7.16,7.16,7.16,2,112,31,935,90,91,4,RL,1,M,24,R,2025-04-10_14h34.10.545,RewSL_RL_EEG,
ping,lowB,downLeft,DOWN,red,l,lowA,Stimuli\red_bar1.png,Stimuli\red_bar1.png,Stimuli\ping.png,midRight,high,midLeft,lowC,downRight,upLeft,upRight,1,rew_low,m,,,,,0,91,91,58,,,0.5,0.8,exp,m,1,0.33121909998590127,-7.16,-7.16,10.14,0,-10.14,0,7.16,-7.16,-7.16,7.16,7.16,7.16,2,232,30,936,91,92,4,RL,1,M,24,R,2025-04-10_14h34.10.545,RewSL_RL_EEG,
ping,lowA,midRight,UP,green,l,high,Stimuli\green_bar1.png,Stimuli\green_bar1.png,Stimuli\ping.png,midLeft,lowB,downLeft,lowC,downRight,upLeft,upRight,1,rew_low,z,,,,,0,92,92,49,,,0.5,0.7,exp,z,1,0.32712909998372197,10.14,0,-10.14,0,-7.16,-7.16,7.16,-7.16,-7.16,7.16,7.16,7.16,2,122,30,937,92,93,4,RL,1,M,24,R,2025-04-10_14h34.10.545,RewSL_RL_EEG,
ping,high,midLeft,DOWN,red,l,lowA,Stimuli\red_bar1.png,Stimuli\red_bar1.png,Stimuli\ping.png,midRight,lowB,downLeft,lowC,downRight,upLeft,upRight,1,rew_high,m,,,,,0,93,93,18,,,0.5,0.7,exp,m,1,0.3021146999672055,-10.14,0,10.14,0,-7.16,-7.16,7.16,-7.16,-7.16,7.16,7.16,7.16,2,212,31,1037,93,94,4,RL,1,M,24,R,2025-04-10_14h34.10.545,RewSL_RL_EEG,
ping,lowB,downLeft,UP,red,l,lowA,Stimuli\red_bar1.png,Stimuli\red_bar1.png,Stimuli\ping.png,midRight,high,midLeft,lowC,downRight,upLeft,upRight,1,rew_low,z,,,,,0,94,94,64,,,0.5,0.8,exp,m,0,0.302216199983377,-7.16,-7.16,10.14,0,-10.14,0,7.16,-7.16,-7.16,7.16,7.16,7.16,2,132,30,1037,94,95,4,RL,1,M,24,R,2025-04-10_14h34.10.545,RewSL_RL_EEG,
ping,lowA,midRight,UP,red,r,high,Stimuli\red_bar1.png,Stimuli\red_bar1.png,Stimuli\ping.png,midLeft,lowB,downLeft,lowC,downRight,upLeft,upRight,1,rew_low,z,,,,,0,95,95,36,,,0.4,0.6,exp,z,1,0.5064665999962017,10.14,0,-10.14,0,-7.16,-7.16,7.16,-7.16,-7.16,7.16,7.16,7.16,2,122,30,1038,95,96,4,RL,1,M,24,R,2025-04-10_14h34.10.545,RewSL_RL_EEG,
ping,lowC,downRight,UP,red,l,lowA,Stimuli\red_bar1.png,Stimuli\red_bar1.png,Stimuli\ping.png,midRight,lowB,downLeft,high,midLeft,upLeft,upRight,1,rew_low,z,,,,,0,96,96,80,,,0.4,0.7,exp,z,1,0.33121829997980967,7.16,-7.16,10.14,0,-7.16,-7.16,-10.14,0,-7.16,7.16,7.16,7.16,2,142,30,1039,96,97,4,RL,1,M,24,R,2025-04-10_14h34.10.545,RewSL_RL_EEG,
ping,lowA,midRight,DOWN,green,l,high,Stimuli\green_bar1.png,Stimuli\green_bar1.png,Stimuli\ping.png,midLeft,lowB,downLeft,lowC,downRight,upLeft,upRight,1,rew_low,m,,,,,0,97,97,35,,,0.5,0.7,exp,m,1,0.3559988999622874,10.14,0,-10.14,0,-7.16,-7.16,7.16,-7.16,-7.16,7.16,7.16,7.16,2,222,30,1040,97,98,4,RL,1,M,24,R,2025-04-10_14h34.10.545,RewSL_RL_EEG,
ping,lowB,downLeft,UP,red,l,lowA,Stimuli\red_bar1.png,Stimuli\red_bar1.png,Stimuli\ping.png,midRight,high,midLeft,lowC,downRight,upLeft,upRight,1,rew_low,z,,,,,0,98,98,56,,,0.5,0.7,exp,z,1,0.3805784999858588,-7.16,-7.16,10.14,0,-10.14,0,7.16,-7.16,-7.16,7.16,7.16,7.16,2,132,30,1041,98,99,4,RL,1,M,24,R,2025-04-10_14h34.10.545,RewSL_RL_EEG,
ping,lowB,downLeft,DOWN,red,l,lowA,Stimuli\red_bar1.png,Stimuli\red_bar1.png,Stimuli\ping.png,midRight,high,midLeft,lowC,downRight,upLeft,upRight,1,rew_low,m,,,,,0,99,99,50,,,0.5,0.6,exp,z,0,0.3859222999890335,-7.16,-7.16,10.14,0,-10.14,0,7.16,-7.16,-7.16,7.16,7.16,7.16,2,232,30,1041,99,100,4,RL,1,M,24,R,2025-04-10_14h34.10.545,RewSL_RL_EEG,
ping,lowA,downLeft,UP,red,l,high,Stimuli\red_bar1.png,Stimuli\red_bar1.png,Stimuli\ping.png,downRight,lowB,midRight,lowC,midLeft,upLeft,upRight,4,rew_low,z,,,,,0,0,0,48,,,0.5,0.8,exp,z,1,0.4442617000313476,-7.16,-7.16,7.16,-7.16,10.14,0,-10.14,0,-7.16,7.16,7.16,7.16,8,138,30,1042,100,101,4,RL,1,M,24,R,2025-04-10_14h34.10.545,RewSL_RL_EEG,
ping,lowC,midLeft,UP,green,l,lowA,Stimuli\green_bar1.png,Stimuli\green_bar1.png,Stimuli\ping.png,downLeft,lowB,midRight,high,downRight,upLeft,upRight,4,rew_low,z,,,,,0,1,1,97,,,0.5,0.7,exp,z,1,0.4812380999792367,-10.14,0,-7.16,-7.16,10.14,0,7.16,-7.16,-7.16,7.16,7.16,7.16,8,118,30,1043,101,102,4,RL,1,M,24,R,2025-04-10_14h34.10.545,RewSL_RL_EEG,
ping,high,downRight,UP,red,l,lowA,Stimuli\red_bar1.png,Stimuli\red_bar1.png,Stimuli\ping.png,downLeft,lowB,midRight,lowC,midLeft,upLeft,upRight,4,rew_high,z,,,,,0,2,2,8,,,0.5,0.6,exp,z,1,0.4639832000248134,7.16,-7.16,-7.16,-7.16,10.14,0,-10.14,0,-7.16,7.16,7.16,7.16,8,148,31,1143,102,103,4,RL,1,M,24,R,2025-04-10_14h34.10.545,RewSL_RL_EEG,
ping,lowB,midRight,DOWN,green,r,lowA,Stimuli\green_bar1.png,Stimuli\green_bar1.png,Stimuli\ping.png,downLeft,high,downRight,lowC,midLeft,upLeft,upRight,4,rew_low,m,,,,,0,3,3,55,,,0.5,0.6,exp,m,1,0.4182073000119999,10.14,0,-7.16,-7.16,7.16,-7.16,-10.14,0,-7.16,7.16,7.16,7.16,8,228,30,1144,103,104,4,RL,1,M,24,R,2025-04-10_14h34.10.545,RewSL_RL_EEG,
ping,lowC,midLeft,DOWN,red,r,lowA,Stimuli\red_bar1.png,Stimuli\red_bar1.png,Stimuli\ping.png,downLeft,lowB,midRight,high,downRight,upLeft,upRight,4,rew_low,m,,,,,0,4,4,86,,,0.6,0.8,exp,m,1,0.5307451000553556,-10.14,0,-7.16,-7.16,10.14,0,7.16,-7.16,-7.16,7.16,7.16,7.16,8,218,30,1145,104,105,4,RL,1,M,24,R,2025-04-10_14h34.10.545,RewSL_RL_EEG,
ping,lowC,midLeft,UP,green,r,lowA,Stimuli\green_bar1.png,Stimuli\green_bar1.png,Stimuli\ping.png,downLeft,lowB,midRight,high,downRight,upLeft,upRight,4,rew_low,z,,,,,0,5,5,93,,,0.6,0.8,exp,m,0,0.3562104000011459,-10.14,0,-7.16,-7.16,10.14,0,7.16,-7.16,-7.16,7.16,7.16,7.16,8,118,30,1145,105,106,4,RL,1,M,24,R,2025-04-10_14h34.10.545,RewSL_RL_EEG,
ping,lowC,midLeft,UP,green,r,lowA,Stimuli\green_bar1.png,Stimuli\green_bar1.png,Stimuli\ping.png,downLeft,lowB,midRight,high,downRight,upLeft,upRight,4,rew_low,z,,,,,0,6,6,77,,,0.5,0.7,exp,z,1,0.34765449998667464,-10.14,0,-7.16,-7.16,10.14,0,7.16,-7.16,-7.16,7.16,7.16,7.16,8,118,30,1146,106,107,4,RL,1,M,24,R,2025-04-10_14h34.10.545,RewSL_RL_EEG,
ping,lowA,downLeft,UP,green,r,high,Stimuli\green_bar1.png,Stimuli\green_bar1.png,Stimuli\ping.png,downRight,lowB,midRight,lowC,midLeft,upLeft,upRight,4,rew_low,z,,,,,0,7,7,37,,,0.6,0.6,exp,z,1,0.344583900005091,-7.16,-7.16,7.16,-7.16,10.14,0,-10.14,0,-7.16,7.16,7.16,7.16,8,138,30,1147,107,108,4,RL,1,M,24,R,2025-04-10_14h34.10.545,RewSL_RL_EEG,
ping,lowB,midRight,DOWN,green,l,lowA,Stimuli\green_bar1.png,Stimuli\green_bar1.png,Stimuli\ping.png,downLeft,high,downRight,lowC,midLeft,upLeft,upRight,4,rew_low,m,,,,,0,8,8,67,,,0.5,0.7,exp,z,0,0.35220740002114326,10.14,0,-7.16,-7.16,7.16,-7.16,-10.14,0,-7.16,7.16,7.16,7.16,8,228,30,1147,108,109,4,RL,1,M,24,R,2025-04-10_14h34.10.545,RewSL_RL_EEG,
ping,lowC,midLeft,UP,green,l,lowA,Stimuli\green_bar1.png,Stimuli\green_bar1.png,Stimuli\ping.png,downLeft,lowB,midRight,high,downRight,upLeft,upRight,4,rew_low,z,,,,,0,9,9,81,,,0.5,0.6,exp,m,0,0.42711879999842495,-10.14,0,-7.16,-7.16,10.14,0,7.16,-7.16,-7.16,7.16,7.16,7.16,8,118,30,1147,109,110,4,RL,1,M,24,R,2025-04-10_14h34.10.545,RewSL_RL_EEG,
ping,high,downRight,DOWN,green,l,lowA,Stimuli\green_bar1.png,Stimuli\green_bar1.png,Stimuli\ping.png,downLeft,lowB,midRight,lowC,midLeft,upLeft,upRight,4,rew_high,m,,,,,0,10,10,3,,,0.5,0.6,exp,m,1,0.33120090002194047,7.16,-7.16,-7.16,-7.16,10.14,0,-10.14,0,-7.16,7.16,7.16,7.16,8,248,31,1247,110,111,4,RL,1,M,24,R,2025-04-10_14h34.10.545,RewSL_RL_EEG,
ping,lowC,midLeft,DOWN,green,l,lowA,Stimuli\green_bar1.png,Stimuli\green_bar1.png,Stimuli\ping.png,downLeft,lowB,midRight,high,downRight,upLeft,upRight,4,rew_low,m,,,,,0,11,11,91,,,0.4,0.6,exp,z,0,0.3269663999672048,-10.14,0,-7.16,-7.16,10.14,0,7.16,-7.16,-7.16,7.16,7.16,7.16,8,218,30,1247,111,112,4,RL,1,M,24,R,2025-04-10_14h34.10.545,RewSL_RL_EEG,
ping,high,downRight,UP,red,l,lowA,Stimuli\red_bar1.png,Stimuli\red_bar1.png,Stimuli\ping.png,downLeft,lowB,midRight,lowC,midLeft,upLeft,upRight,4,rew_high,z,,,,,0,12,12,0,,,0.5,0.7,exp,z,1,0.33965989999705926,7.16,-7.16,-7.16,-7.16,10.14,0,-10.14,0,-7.16,7.16,7.16,7.16,8,148,31,1347,112,113,4,RL,1,M,24,R,2025-04-10_14h34.10.545,RewSL_RL_EEG,
ping,lowC,midLeft,UP,red,r,lowA,Stimuli\red_bar1.png,Stimuli\red_bar1.png,Stimuli\ping.png,downLeft,lowB,midRight,high,downRight,upLeft,upRight,4,rew_low,z,,,,,0,13,13,76,,,0.4,0.8,exp,m,0,0.30223240004852414,-10.14,0,-7.16,-7.16,10.14,0,7.16,-7.16,-7.16,7.16,7.16,7.16,8,118,30,1347,113,114,4,RL,1,M,24,R,2025-04-10_14h34.10.545,RewSL_RL_EEG,
ping,high,downRight,DOWN,red,l,lowA,Stimuli\red_bar1.png,Stimuli\red_bar1.png,Stimuli\ping.png,downLeft,lowB,midRight,lowC,midLeft,upLeft,upRight,4,rew_high,m,,,,,0,14,14,10,,,0.5,0.7,exp,m,1,0.5807961000245996,7.16,-7.16,-7.16,-7.16,10.14,0,-10.14,0,-7.16,7.16,7.16,7.16,8,248,31,1447,114,115,4,RL,1,M,24,R,2025-04-10_14h34.10.545,RewSL_RL_EEG,
ping,lowC,midLeft,UP,green,r,lowA,Stimuli\green_bar1.png,Stimuli\green_bar1.png,Stimuli\ping.png,downLeft,lowB,midRight,high,downRight,upLeft,upRight,4,rew_low,z,,,,,0,15,15,85,,,0.5,0.7,exp,z,1,0.4108731999876909,-10.14,0,-7.16,-7.16,10.14,0,7.16,-7.16,-7.16,7.16,7.16,7.16,8,118,30,1448,115,116,4,RL,1,M,24,R,2025-04-10_14h34.10.545,RewSL_RL_EEG,
ping,lowB,midRight,UP,red,r,lowA,Stimuli\red_bar1.png,Stimuli\red_bar1.png,Stimuli\ping.png,downLeft,high,downRight,lowC,midLeft,upLeft,upRight,4,rew_low,z,,,,,0,16,16,60,,,0.4,0.7,exp,m,0,0.33107339998241514,10.14,0,-7.16,-7.16,7.16,-7.16,-10.14,0,-7.16,7.16,7.16,7.16,8,128,30,1448,116,117,4,RL,1,M,24,R,2025-04-10_14h34.10.545,RewSL_RL_EEG,
ping,lowB,midRight,DOWN,red,r,lowA,Stimuli\red_bar1.png,Stimuli\red_bar1.png,Stimuli\ping.png,downLeft,high,downRight,lowC,midLeft,upLeft,upRight,4,rew_low,m,,,,,0,17,17,70,,,0.5,0.8,exp,m,1,0.3524633999913931,10.14,0,-7.16,-7.16,7.16,-7.16,-10.14,0,-7.16,7.16,7.16,7.16,8,228,30,1449,117,118,4,RL,1,M,24,R,2025-04-10_14h34.10.545,RewSL_RL_EEG,
ping,lowB,midRight,DOWN,green,l,lowA,Stimuli\green_bar1.png,Stimuli\green_bar1.png,Stimuli\ping.png,downLeft,high,downRight,lowC,midLeft,upLeft,upRight,4,rew_low,m,,,,,0,18,18,51,,,0.5,0.8,exp,m,1,0.3394958999706432,10.14,0,-7.16,-7.16,7.16,-7.16,-10.14,0,-7.16,7.16,7.16,7.16,8,228,30,1450,118,119,4,RL,1,M,24,R,2025-04-10_14h34.10.545,RewSL_RL_EEG,
ping,lowC,midLeft,DOWN,red,l,lowA,Stimuli\red_bar1.png,Stimuli\red_bar1.png,Stimuli\ping.png,downLeft,lowB,midRight,high,downRight,upLeft,upRight,4,rew_low,m,,,,,0,19,19,82,,,0.5,0.6,exp,m,1,0.39422640000702813,-10.14,0,-7.16,-7.16,10.14,0,7.16,-7.16,-7.16,7.16,7.16,7.16,8,218,30,1451,119,120,4,RL,1,M,24,R,2025-04-10_14h34.10.545,RewSL_RL_EEG,
ping,lowB,midRight,DOWN,red,r,lowA,Stimuli\red_bar1.png,Stimuli\red_bar1.png,Stimuli\ping.png,downLeft,high,downRight,lowC,midLeft,upLeft,upRight,4,rew_low,m,,,,,0,20,20,54,,,0.5,0.7,exp,m,1,0.3433212999952957,10.14,0,-7.16,-7.16,7.16,-7.16,-10.14,0,-7.16,7.16,7.16,7.16,8,228,30,1452,120,121,4,RL,1,M,24,R,2025-04-10_14h34.10.545,RewSL_RL_EEG,
ping,lowA,downLeft,DOWN,green,r,high,Stimuli\green_bar1.png,Stimuli\green_bar1.png,Stimuli\ping.png,downRight,lowB,midRight,lowC,midLeft,upLeft,upRight,4,rew_low,m,,,,,0,21,21,39,,,0.4,0.7,exp,m,1,0.4392534999642521,-7.16,-7.16,7.16,-7.16,10.14,0,-10.14,0,-7.16,7.16,7.16,7.16,8,238,30,1453,121,122,4,RL,1,M,24,R,2025-04-10_14h34.10.545,RewSL_RL_EEG,
ping,lowB,midRight,UP,green,r,lowA,Stimuli\green_bar1.png,Stimuli\green_bar1.png,Stimuli\ping.png,downLeft,high,downRight,lowC,midLeft,upLeft,upRight,4,rew_low,z,,,,,0,22,22,69,,,0.5,0.7,exp,z,1,0.3386404999764636,10.14,0,-7.16,-7.16,7.16,-7.16,-10.14,0,-7.16,7.16,7.16,7.16,8,128,30,1454,122,123,4,RL,1,M,24,R,2025-04-10_14h34.10.545,RewSL_RL_EEG,
ping,high,downRight,DOWN,red,r,lowA,Stimuli\red_bar1.png,Stimuli\red_bar1.png,Stimuli\ping.png,downLeft,lowB,midRight,lowC,midLeft,upLeft,upRight,4,rew_high,m,,,,,0,23,23,22,,,0.6,0.7,exp,m,1,0.3404449999798089,7.16,-7.16,-7.16,-7.16,10.14,0,-10.14,0,-7.16,7.16,7.16,7.16,8,248,31,1554,123,124,4,RL,1,M,24,R,2025-04-10_14h34.10.545,RewSL_RL_EEG,
ping,high,downRight,DOWN,green,l,lowA,Stimuli\green_bar1.png,Stimuli\green_bar1.png,Stimuli\ping.png,downLeft,lowB,midRight,lowC,midLeft,upLeft,upRight,4,rew_high,m,,,,,0,24,24,11,,,0.5,0.7,exp,z,0,0.36433140002191067,7.16,-7.16,-7.16,-7.16,10.14,0,-10.14,0,-7.16,7.16,7.16,7.16,8,248,31,1554,124,125,4,RL,1,M,24,R,2025-04-10_14h34.10.545,RewSL_RL_EEG,
ping,lowA,downLeft,UP,red,l,high,Stimuli\red_bar1.png,Stimuli\red_bar1.png,Stimuli\ping.png,downRight,lowB,midRight,lowC,midLeft,upLeft,upRight,4,rew_low,z,,,,,0,25,25,32,,,0.4,0.7,exp,z,1,0.5353603000403382,-7.16,-7.16,7.16,-7.16,10.14,0,-10.14,0,-7.16,7.16,7.16,7.16,8,138,30,1555,125,126,4,RL,1,M,24,R,2025-04-10_14h34.10.545,RewSL_RL_EEG,
ping,lowA,downLeft,DOWN,green,l,high,Stimuli\green_bar1.png,Stimuli\green_bar1.png,Stimuli\ping.png,downRight,lowB,midRight,lowC,midLeft,upLeft,upRight,4,rew_low,m,,,,,0,26,26,35,,,0.4,0.8,exp,m,1,0.50191970000742,-7.16,-7.16,7.16,-7.16,10.14,0,-10.14,0,-7.16,7.16,7.16,7.16,8,238,30,1556,126,127,4,RL,1,M,24,R,2025-04-10_14h34.10.545,RewSL_RL_EEG,
ping,high,downRight,UP,green,l,lowA,Stimuli\green_bar1.png,Stimuli\green_bar1.png,Stimuli\ping.png,downLeft,lowB,midRight,lowC,midLeft,upLeft,upRight,4,rew_high,z,,,,,0,27,27,17,,,0.6,0.8,exp,m,0,0.338918499997817,7.16,-7.16,-7.16,-7.16,10.14,0,-10.14,0,-7.16,7.16,7.16,7.16,8,148,31,1556,127,128,4,RL,1,M,24,R,2025-04-10_14h34.10.545,RewSL_RL_EEG,
ping,lowA,downLeft,DOWN,red,r,high,Stimuli\red_bar1.png,Stimuli\red_bar1.png,Stimuli\ping.png,downRight,lowB,midRight,lowC,midLeft,upLeft,upRight,4,rew_low,m,,,,,0,28,28,38,,,0.4,0.8,exp,z,0,0.42630809999536723,-7.16,-7.16,7.16,-7.16,10.14,0,-10.14,0,-7.16,7.16,7.16,7.16,8,238,30,1556,128,129,4,RL,1,M,24,R,2025-04-10_14h34.10.545,RewSL_RL_EEG,
ping,lowC,midLeft,UP,red,l,lowA,Stimuli\red_bar1.png,Stimuli\red_bar1.png,Stimuli\ping.png,downLeft,lowB,midRight,high,downRight,upLeft,upRight,4,rew_low,z,,,,,0,29,29,88,,,0.5,0.7,exp,m,0,0.4685368000064045,-10.14,0,-7.16,-7.16,10.14,0,7.16,-7.16,-7.16,7.16,7.16,7.16,8,118,30,1556,129,130,4,RL,1,M,24,R,2025-04-10_14h34.10.545,RewSL_RL_EEG,
ping,lowB,midRight,UP,green,r,lowA,Stimuli\green_bar1.png,Stimuli\green_bar1.png,Stimuli\ping.png,downLeft,high,downRight,lowC,midLeft,upLeft,upRight,4,rew_low,z,,,,,0,30,30,61,,,0.5,0.7,exp,m,0,0.45713579998118803,10.14,0,-7.16,-7.16,7.16,-7.16,-10.14,0,-7.16,7.16,7.16,7.16,8,128,30,1556,130,131,4,RL,1,M,24,R,2025-04-10_14h34.10.545,RewSL_RL_EEG,
ping,lowB,midRight,UP,red,l,lowA,Stimuli\red_bar1.png,Stimuli\red_bar1.png,Stimuli\ping.png,downLeft,high,downRight,lowC,midLeft,upLeft,upRight,4,rew_low,z,,,,,0,31,31,64,,,0.6,0.7,exp,z,1,0.4893928000237793,10.14,0,-7.16,-7.16,7.16,-7.16,-10.14,0,-7.16,7.16,7.16,7.16,8,128,30,1557,131,132,4,RL,1,M,24,R,2025-04-10_14h34.10.545,RewSL_RL_EEG,
ping,lowC,midLeft,DOWN,green,r,lowA,Stimuli\green_bar1.png,Stimuli\green_bar1.png,Stimuli\ping.png,downLeft,lowB,midRight,high,downRight,upLeft,upRight,4,rew_low,m,,,,,0,32,32,79,,,0.5,0.8,exp,m,1,0.4267235000152141,-10.14,0,-7.16,-7.16,10.14,0,7.16,-7.16,-7.16,7.16,7.16,7.16,8,218,30,1558,132,133,4,RL,1,M,24,R,2025-04-10_14h34.10.545,RewSL_RL_EEG,
ping,lowA,downLeft,UP,green,r,high,Stimuli\green_bar1.png,Stimuli\green_bar1.png,Stimuli\ping.png,downRight,lowB,midRight,lowC,midLeft,upLeft,upRight,4,rew_low,z,,,,,0,33,33,45,,,0.5,0.7,exp,m,0,0.6399226999492384,-7.16,-7.16,7.16,-7.16,10.14,0,-10.14,0,-7.16,7.16,7.16,7.16,8,138,30,1558,133,134,4,RL,1,M,24,R,2025-04-10_14h34.10.545,RewSL_RL_EEG,
ping,lowA,downLeft,DOWN,green,l,high,Stimuli\green_bar1.png,Stimuli\green_bar1.png,Stimuli\ping.png,downRight,lowB,midRight,lowC,midLeft,upLeft,upRight,4,rew_low,m,,,,,0,34,34,43,,,0.6,0.7,exp,m,1,0.4645396000123583,-7.16,-7.16,7.16,-7.16,10.14,0,-10.14,0,-7.16,7.16,7.16,7.16,8,238,30,1559,134,135,4,RL,1,M,24,R,2025-04-10_14h34.10.545,RewSL_RL_EEG,
ping,high,downRight,UP,green,r,lowA,Stimuli\green_bar1.png,Stimuli\green_bar1.png,Stimuli\ping.png,downLeft,lowB,midRight,lowC,midLeft,upLeft,upRight,4,rew_high,z,,,,,0,35,35,13,,,0.5,0.7,exp,m,0,0.4024312000256032,7.16,-7.16,-7.16,-7.16,10.14,0,-10.14,0,-7.16,7.16,7.16,7.16,8,148,31,1559,135,136,4,RL,1,M,24,R,2025-04-10_14h34.10.545,RewSL_RL_EEG,
ping,lowC,midLeft,DOWN,red,l,lowA,Stimuli\red_bar1.png,Stimuli\red_bar1.png,Stimuli\ping.png,downLeft,lowB,midRight,high,downRight,upLeft,upRight,4,rew_low,m,,,,,0,36,36,90,,,0.4,0.7,exp,z,0,0.6107225000159815,-10.14,0,-7.16,-7.16,10.14,0,7.16,-7.16,-7.16,7.16,7.16,7.16,8,218,30,1559,136,137,4,RL,1,M,24,R,2025-04-10_14h34.10.545,RewSL_RL_EEG,
ping,lowB,midRight,UP,red,l,lowA,Stimuli\red_bar1.png,Stimuli\red_bar1.png,Stimuli\ping.png,downLeft,high,downRight,lowC,midLeft,upLeft,upRight,4,rew_low,z,,,,,0,37,37,72,,,0.4,0.8,exp,z,1,0.5230275999638252,10.14,0,-7.16,-7.16,7.16,-7.16,-10.14,0,-7.16,7.16,7.16,7.16,8,128,30,1560,137,138,4,RL,1,M,24,R,2025-04-10_14h34.10.545,RewSL_RL_EEG,
ping,lowC,midLeft,UP,green,l,lowA,Stimuli\green_bar1.png,Stimuli\green_bar1.png,Stimuli\ping.png,downLeft,lowB,midRight,high,downRight,upLeft,upRight,4,rew_low,z,,,,,0,38,38,89,,,0.6,0.6,exp,m,0,0.4817591999890283,-10.14,0,-7.16,-7.16,10.14,0,7.16,-7.16,-7.16,7.16,7.16,7.16,8,118,30,1560,138,139,4,RL,1,M,24,R,2025-04-10_14h34.10.545,RewSL_RL_EEG,
ping,lowB,midRight,DOWN,green,r,lowA,Stimuli\green_bar1.png,Stimuli\green_bar1.png,Stimuli\ping.png,downLeft,high,downRight,lowC,midLeft,upLeft,upRight,4,rew_low,m,,,,,0,39,39,63,,,0.4,0.7,exp,m,1,0.46470859996043146,10.14,0,-7.16,-7.16,7.16,-7.16,-10.14,0,-7.16,7.16,7.16,7.16,8,228,30,1561,139,140,4,RL,1,M,24,R,2025-04-10_14h34.10.545,RewSL_RL_EEG,
ping,high,downRight,UP,red,r,lowA,Stimuli\red_bar1.png,Stimuli\red_bar1.png,Stimuli\ping.png,downLeft,lowB,midRight,lowC,midLeft,upLeft,upRight,4,rew_high,z,,,,,0,40,40,4,,,0.5,0.6,exp,z,1,0.5099674999946728,7.16,-7.16,-7.16,-7.16,10.14,0,-10.14,0,-7.16,7.16,7.16,7.16,8,148,31,1661,140,141,4,RL,1,M,24,R,2025-04-10_14h34.10.545,RewSL_RL_EEG,
ping,high,downRight,DOWN,red,l,lowA,Stimuli\red_bar1.png,Stimuli\red_bar1.png,Stimuli\ping.png,downLeft,lowB,midRight,lowC,midLeft,upLeft,upRight,4,rew_high,m,,,,,0,41,41,18,,,0.5,0.6,exp,m,1,0.5224060000036843,7.16,-7.16,-7.16,-7.16,10.14,0,-10.14,0,-7.16,7.16,7.16,7.16,8,248,31,1761,141,142,4,RL,1,M,24,R,2025-04-10_14h34.10.545,RewSL_RL_EEG,
ping,lowA,downLeft,UP,red,l,high,Stimuli\red_bar1.png,Stimuli\red_bar1.png,Stimuli\ping.png,downRight,lowB,midRight,lowC,midLeft,upLeft,upRight,4,rew_low,z,,,,,0,42,42,40,,,0.5,0.7,exp,z,1,0.57670210005017,-7.16,-7.16,7.16,-7.16,10.14,0,-10.14,0,-7.16,7.16,7.16,7.16,8,138,30,1762,142,143,4,RL,1,M,24,R,2025-04-10_14h34.10.545,RewSL_RL_EEG,
ping,lowC,midLeft,DOWN,green,r,lowA,Stimuli\green_bar1.png,Stimuli\green_bar1.png,Stimuli\ping.png,downLeft,lowB,midRight,high,downRight,upLeft,upRight,4,rew_low,m,,,,,0,43,43,99,,,0.4,0.8,exp,z,0,0.5181916000437923,-10.14,0,-7.16,-7.16,10.14,0,7.16,-7.16,-7.16,7.16,7.16,7.16,8,218,30,1762,143,144,4,RL,1,M,24,R,2025-04-10_14h34.10.545,RewSL_RL_EEG,
ping,lowA,downLeft,UP,red,r,high,Stimuli\red_bar1.png,Stimuli\red_bar1.png,Stimuli\ping.png,downRight,lowB,midRight,lowC,midLeft,upLeft,upRight,4,rew_low,z,,,,,0,44,44,44,,,0.6,0.6,exp,z,1,0.478387399984058,-7.16,-7.16,7.16,-7.16,10.14,0,-10.14,0,-7.16,7.16,7.16,7.16,8,138,30,1763,144,145,4,RL,1,M,24,R,2025-04-10_14h34.10.545,RewSL_RL_EEG,
ping,lowC,midLeft,DOWN,green,r,lowA,Stimuli\green_bar1.png,Stimuli\green_bar1.png,Stimuli\ping.png,downLeft,lowB,midRight,high,downRight,upLeft,upRight,4,rew_low,m,,,,,0,45,45,95,,,0.5,0.7,exp,m,1,0.3768506000051275,-10.14,0,-7.16,-7.16,10.14,0,7.16,-7.16,-7.16,7.16,7.16,7.16,8,218,30,1764,145,146,4,RL,1,M,24,R,2025-04-10_14h34.10.545,RewSL_RL_EEG,
ping,high,downRight,DOWN,green,r,lowA,Stimuli\green_bar1.png,Stimuli\green_bar1.png,Stimuli\ping.png,downLeft,lowB,midRight,lowC,midLeft,upLeft,upRight,4,rew_high,m,,,,,0,46,46,15,,,0.4,0.7,exp,m,1,0.26398930000141263,7.16,-7.16,-7.16,-7.16,10.14,0,-10.14,0,-7.16,7.16,7.16,7.16,8,248,31,1864,146,147,4,RL,1,M,24,R,2025-04-10_14h34.10.545,RewSL_RL_EEG,
ping,lowB,midRight,DOWN,red,l,lowA,Stimuli\red_bar1.png,Stimuli\red_bar1.png,Stimuli\ping.png,downLeft,high,downRight,lowC,midLeft,upLeft,upRight,4,rew_low,m,,,,,0,47,47,66,,,0.5,0.7,exp,m,1,0.4649890000000596,10.14,0,-7.16,-7.16,7.16,-7.16,-10.14,0,-7.16,7.16,7.16,7.16,8,228,30,1865,147,148,4,RL,1,M,24,R,2025-04-10_14h34.10.545,RewSL_RL_EEG,
ping,lowB,midRight,DOWN,red,l,lowA,Stimuli\red_bar1.png,Stimuli\red_bar1.png,Stimuli\ping.png,downLeft,high,downRight,lowC,midLeft,upLeft,upRight,4,rew_low,m,,,,,0,48,48,58,,,0.6,0.6,exp,m,1,0.34755999996559694,10.14,0,-7.16,-7.16,7.16,-7.16,-10.14,0,-7.16,7.16,7.16,7.16,8,228,30,1866,148,149,4,RL,1,M,24,R,2025-04-10_14h34.10.545,RewSL_RL_EEG,
ping,lowC,midLeft,DOWN,green,l,lowA,Stimuli\green_bar1.png,Stimuli\green_bar1.png,Stimuli\ping.png,downLeft,lowB,midRight,high,downRight,upLeft,upRight,4,rew_low,m,,,,,0,49,49,75,,,0.5,0.8,exp,m,1,0.36833570001181215,-10.14,0,-7.16,-7.16,10.14,0,7.16,-7.16,-7.16,7.16,7.16,7.16,8,218,30,1867,149,150,4,RL,1,M,24,R,2025-04-10_14h34.10.545,RewSL_RL_EEG,
ping,lowB,midRight,DOWN,red,r,lowA,Stimuli\red_bar1.png,Stimuli\red_bar1.png,Stimuli\ping.png,downLeft,high,downRight,lowC,midLeft,upLeft,upRight,4,rew_low,m,,,,,0,50,50,62,,,0.6,0.6,exp,m,1,0.35171230003470555,10.14,0,-7.16,-7.16,7.16,-7.16,-10.14,0,-7.16,7.16,7.16,7.16,8,228,30,1868,150,151,4,RL,1,M,24,R,2025-04-10_14h34.10.545,RewSL_RL_EEG,
ping,lowC,midLeft,DOWN,green,l,lowA,Stimuli\green_bar1.png,Stimuli\green_bar1.png,Stimuli\ping.png,downLeft,lowB,midRight,high,downRight,upLeft,upRight,4,rew_low,m,,,,,0,51,51,83,,,0.4,0.6,exp,m,1,0.4306207000045106,-10.14,0,-7.16,-7.16,10.14,0,7.16,-7.16,-7.16,7.16,7.16,7.16,8,218,30,1869,151,152,4,RL,1,M,24,R,2025-04-10_14h34.10.545,RewSL_RL_EEG,
ping,high,downRight,DOWN,green,r,lowA,Stimuli\green_bar1.png,Stimuli\green_bar1.png,Stimuli\ping.png,downLeft,lowB,midRight,lowC,midLeft,upLeft,upRight,4,rew_high,m,,,,,0,52,52,23,,,0.4,0.6,exp,m,1,0.33527759998105466,7.16,-7.16,-7.16,-7.16,10.14,0,-10.14,0,-7.16,7.16,7.16,7.16,8,248,31,1969,152,153,4,RL,1,M,24,R,2025-04-10_14h34.10.545,RewSL_RL_EEG,
ping,high,downRight,UP,green,l,lowA,Stimuli\green_bar1.png,Stimuli\green_bar1.png,Stimuli\ping.png,downLeft,lowB,midRight,lowC,midLeft,upLeft,upRight,4,rew_high,z,,,,,0,53,53,1,,,0.6,0.7,exp,z,1,0.24063890002435073,7.16,-7.16,-7.16,-7.16,10.14,0,-10.14,0,-7.16,7.16,7.16,7.16,8,148,31,2069,153,154,4,RL,1,M,24,R,2025-04-10_14h34.10.545,RewSL_RL_EEG,
ping,high,downRight,UP,red,l,lowA,Stimuli\red_bar1.png,Stimuli\red_bar1.png,Stimuli\ping.png,downLeft,lowB,midRight,lowC,midLeft,upLeft,upRight,4,rew_high,z,,,,,0,54,54,24,,,0.5,0.7,exp,z,1,0.4894485999830067,7.16,-7.16,-7.16,-7.16,10.14,0,-10.14,0,-7.16,7.16,7.16,7.16,8,148,31,2169,154,155,4,RL,1,M,24,R,2025-04-10_14h34.10.545,RewSL_RL_EEG,
ping,lowB,midRight,DOWN,green,l,lowA,Stimuli\green_bar1.png,Stimuli\green_bar1.png,Stimuli\ping.png,downLeft,high,downRight,lowC,midLeft,upLeft,upRight,4,rew_low,m,,,,,0,55,55,59,,,0.5,0.8,exp,m,1,0.41454699996393174,10.14,0,-7.16,-7.16,7.16,-7.16,-10.14,0,-7.16,7.16,7.16,7.16,8,228,30,2170,155,156,4,RL,1,M,24,R,2025-04-10_14h34.10.545,RewSL_RL_EEG,
ping,lowA,downLeft,UP,red,r,high,Stimuli\red_bar1.png,Stimuli\red_bar1.png,Stimuli\ping.png,downRight,lowB,midRight,lowC,midLeft,upLeft,upRight,4,rew_low,z,,,,,0,56,56,36,,,0.5,0.7,exp,m,0,0.5018722000531852,-7.16,-7.16,7.16,-7.16,10.14,0,-10.14,0,-7.16,7.16,7.16,7.16,8,138,30,2170,156,157,4,RL,1,M,24,R,2025-04-10_14h34.10.545,RewSL_RL_EEG,
ping,lowC,midLeft,UP,red,r,lowA,Stimuli\red_bar1.png,Stimuli\red_bar1.png,Stimuli\ping.png,downLeft,lowB,midRight,high,downRight,upLeft,upRight,4,rew_low,z,,,,,0,57,57,92,,,0.5,0.8,exp,z,1,0.4936091999989003,-10.14,0,-7.16,-7.16,10.14,0,7.16,-7.16,-7.16,7.16,7.16,7.16,8,118,30,2171,157,158,4,RL,1,M,24,R,2025-04-10_14h34.10.545,RewSL_RL_EEG,
ping,lowA,downLeft,UP,green,l,high,Stimuli\green_bar1.png,Stimuli\green_bar1.png,Stimuli\ping.png,downRight,lowB,midRight,lowC,midLeft,upLeft,upRight,4,rew_low,z,,,,,0,58,58,41,,,0.5,0.7,exp,m,0,0.5520440000109375,-7.16,-7.16,7.16,-7.16,10.14,0,-10.14,0,-7.16,7.16,7.16,7.16,8,138,30,2171,158,159,4,RL,1,M,24,R,2025-04-10_14h34.10.545,RewSL_RL_EEG,
ping,lowB,midRight,UP,red,r,lowA,Stimuli\red_bar1.png,Stimuli\red_bar1.png,Stimuli\ping.png,downLeft,high,downRight,lowC,midLeft,upLeft,upRight,4,rew_low,z,,,,,0,59,59,68,,,0.5,0.7,exp,z,1,0.4650733000016771,10.14,0,-7.16,-7.16,7.16,-7.16,-10.14,0,-7.16,7.16,7.16,7.16,8,128,30,2172,159,160,4,RL,1,M,24,R,2025-04-10_14h34.10.545,RewSL_RL_EEG,
ping,high,downRight,DOWN,red,r,lowA,Stimuli\red_bar1.png,Stimuli\red_bar1.png,Stimuli\ping.png,downLeft,lowB,midRight,lowC,midLeft,upLeft,upRight,4,rew_high,m,,,,,0,60,60,14,,,0.4,0.7,exp,z,0,0.5107778999954462,7.16,-7.16,-7.16,-7.16,10.14,0,-10.14,0,-7.16,7.16,7.16,7.16,8,248,31,2172,160,161,4,RL,1,M,24,R,2025-04-10_14h34.10.545,RewSL_RL_EEG,
ping,lowA,downLeft,UP,green,l,high,Stimuli\green_bar1.png,Stimuli\green_bar1.png,Stimuli\ping.png,downRight,lowB,midRight,lowC,midLeft,upLeft,upRight,4,rew_low,z,,,,,0,61,61,25,,,0.4,0.6,exp,z,1,0.6524673000094481,-7.16,-7.16,7.16,-7.16,10.14,0,-10.14,0,-7.16,7.16,7.16,7.16,8,138,30,2173,161,162,4,RL,1,M,24,R,2025-04-10_14h34.10.545,RewSL_RL_EEG,
ping,lowA,downLeft,UP,red,r,high,Stimuli\red_bar1.png,Stimuli\red_bar1.png,Stimuli\ping.png,downRight,lowB,midRight,lowC,midLeft,upLeft,upRight,4,rew_low,z,,,,,0,62,62,28,,,0.5,0.6,exp,z,1,0.3809736000257544,-7.16,-7.16,7.16,-7.16,10.14,0,-10.14,0,-7.16,7.16,7.16,7.16,8,138,30,2174,162,163,4,RL,1,M,24,R,2025-04-10_14h34.10.545,RewSL_RL_EEG,
ping,lowA,downLeft,DOWN,red,r,high,Stimuli\red_bar1.png,Stimuli\red_bar1.png,Stimuli\ping.png,downRight,lowB,midRight,lowC,midLeft,upLeft,upRight,4,rew_low,m,,,,,0,63,63,46,,,0.5,0.8,exp,z,0,0.4020186000270769,-7.16,-7.16,7.16,-7.16,10.14,0,-10.14,0,-7.16,7.16,7.16,7.16,8,238,30,2174,163,164,4,RL,1,M,24,R,2025-04-10_14h34.10.545,RewSL_RL_EEG,
ping,high,downRight,UP,green,r,lowA,Stimuli\green_bar1.png,Stimuli\green_bar1.png,Stimuli\ping.png,downLeft,lowB,midRight,lowC,midLeft,upLeft,upRight,4,rew_high,z,,,,,0,64,64,5,,,0.4,0.6,exp,m,0,0.5104452000232413,7.16,-7.16,-7.16,-7.16,10.14,0,-10.14,0,-7.16,7.16,7.16,7.16,8,148,31,2174,164,165,4,RL,1,M,24,R,2025-04-10_14h34.10.545,RewSL_RL_EEG,
ping,high,downRight,DOWN,red,l,lowA,Stimuli\red_bar1.png,Stimuli\red_bar1.png,Stimuli\ping.png,downLeft,lowB,midRight,lowC,midLeft,upLeft,upRight,4,rew_high,m,,,,,0,65,65,2,,,0.5,0.8,exp,z,0,0.6436479999683797,7.16,-7.16,-7.16,-7.16,10.14,0,-10.14,0,-7.16,7.16,7.16,7.16,8,248,31,2174,165,166,4,RL,1,M,24,R,2025-04-10_14h34.10.545,RewSL_RL_EEG,
ping,lowB,midRight,UP,green,l,lowA,Stimuli\green_bar1.png,Stimuli\green_bar1.png,Stimuli\ping.png,downLeft,high,downRight,lowC,midLeft,upLeft,upRight,4,rew_low,z,,,,,0,66,66,57,,,0.5,0.8,exp,z,1,0.45595609996235,10.14,0,-7.16,-7.16,7.16,-7.16,-10.14,0,-7.16,7.16,7.16,7.16,8,128,30,2175,166,167,4,RL,1,M,24,R,2025-04-10_14h34.10.545,RewSL_RL_EEG,
ping,lowC,midLeft,DOWN,red,r,lowA,Stimuli\red_bar1.png,Stimuli\red_bar1.png,Stimuli\ping.png,downLeft,lowB,midRight,high,downRight,upLeft,upRight,4,rew_low,m,,,,,0,67,67,78,,,0.5,0.8,exp,z,0,0.6061803999473341,-10.14,0,-7.16,-7.16,10.14,0,7.16,-7.16,-7.16,7.16,7.16,7.16,8,218,30,2175,167,168,4,RL,1,M,24,R,2025-04-10_14h34.10.545,RewSL_RL_EEG,
ping,lowC,midLeft,DOWN,red,r,lowA,Stimuli\red_bar1.png,Stimuli\red_bar1.png,Stimuli\ping.png,downLeft,lowB,midRight,high,downRight,upLeft,upRight,4,rew_low,m,,,,,0,68,68,94,,,0.4,0.8,exp,z,0,0.5351017999928445,-10.14,0,-7.16,-7.16,10.14,0,7.16,-7.16,-7.16,7.16,7.16,7.16,8,218,30,2175,168,169,4,RL,1,M,24,R,2025-04-10_14h34.10.545,RewSL_RL_EEG,
ping,lowA,downLeft,DOWN,red,r,high,Stimuli\red_bar1.png,Stimuli\red_bar1.png,Stimuli\ping.png,downRight,lowB,midRight,lowC,midLeft,upLeft,upRight,4,rew_low,m,,,,,0,69,69,30,,,0.5,0.7,exp,m,1,0.35999299999093637,-7.16,-7.16,7.16,-7.16,10.14,0,-10.14,0,-7.16,7.16,7.16,7.16,8,238,30,2176,169,170,4,RL,1,M,24,R,2025-04-10_14h34.10.545,RewSL_RL_EEG,
ping,lowC,midLeft,UP,red,r,lowA,Stimuli\red_bar1.png,Stimuli\red_bar1.png,Stimuli\ping.png,downLeft,lowB,midRight,high,downRight,upLeft,upRight,4,rew_low,z,,,,,0,70,70,84,,,0.6,0.6,exp,z,1,0.44792289996985346,-10.14,0,-7.16,-7.16,10.14,0,7.16,-7.16,-7.16,7.16,7.16,7.16,8,118,30,2177,170,171,4,RL,1,M,24,R,2025-04-10_14h34.10.545,RewSL_RL_EEG,
ping,lowC,midLeft,DOWN,green,r,lowA,Stimuli\green_bar1.png,Stimuli\green_bar1.png,Stimuli\ping.png,downLeft,lowB,midRight,high,downRight,upLeft,upRight,4,rew_low,m,,,,,0,71,71,87,,,0.5,0.7,exp,m,1,0.38168719998793676,-10.14,0,-7.16,-7.16,10.14,0,7.16,-7.16,-7.16,7.16,7.16,7.16,8,218,30,2178,171,172,4,RL,1,M,24,R,2025-04-10_14h34.10.545,RewSL_RL_EEG,
ping,lowA,downLeft,UP,green,l,high,Stimuli\green_bar1.png,Stimuli\green_bar1.png,Stimuli\ping.png,downRight,lowB,midRight,lowC,midLeft,upLeft,upRight,4,rew_low,z,,,,,0,72,72,33,,,0.6,0.7,exp,m,0,0.37253699998836964,-7.16,-7.16,7.16,-7.16,10.14,0,-10.14,0,-7.16,7.16,7.16,7.16,8,138,30,2178,172,173,4,RL,1,M,24,R,2025-04-10_14h34.10.545,RewSL_RL_EEG,
ping,lowA,downLeft,UP,green,l,high,Stimuli\green_bar1.png,Stimuli\green_bar1.png,Stimuli\ping.png,downRight,lowB,midRight,lowC,midLeft,upLeft,upRight,4,rew_low,z,,,,,0,73,73,49,,,0.6,0.7,exp,z,1,0.5053746000048704,-7.16,-7.16,7.16,-7.16,10.14,0,-10.14,0,-7.16,7.16,7.16,7.16,8,138,30,2179,173,174,4,RL,1,M,24,R,2025-04-10_14h34.10.545,RewSL_RL_EEG,
ping,lowB,midRight,DOWN,red,l,lowA,Stimuli\red_bar1.png,Stimuli\red_bar1.png,Stimuli\ping.png,downLeft,high,downRight,lowC,midLeft,upLeft,upRight,4,rew_low,m,,,,,0,74,74,74,,,0.5,0.6,exp,m,1,0.37248299998464063,10.14,0,-7.16,-7.16,7.16,-7.16,-10.14,0,-7.16,7.16,7.16,7.16,8,228,30,2180,174,175,4,RL,1,M,24,R,2025-04-10_14h34.10.545,RewSL_RL_EEG,
ping,lowA,downLeft,DOWN,green,r,high,Stimuli\green_bar1.png,Stimuli\green_bar1.png,Stimuli\ping.png,downRight,lowB,midRight,lowC,midLeft,upLeft,upRight,4,rew_low,m,,,,,0,75,75,31,,,0.4,0.7,exp,z,0,0.4639814000111073,-7.16,-7.16,7.16,-7.16,10.14,0,-10.14,0,-7.16,7.16,7.16,7.16,8,238,30,2180,175,176,4,RL,1,M,24,R,2025-04-10_14h34.10.545,RewSL_RL_EEG,
ping,lowA,downLeft,DOWN,red,l,high,Stimuli\red_bar1.png,Stimuli\red_bar1.png,Stimuli\ping.png,downRight,lowB,midRight,lowC,midLeft,upLeft,upRight,4,rew_low,m,,,,,0,76,76,34,,,0.4,0.6,exp,m,1,0.49747950001619756,-7.16,-7.16,7.16,-7.16,10.14,0,-10.14,0,-7.16,7.16,7.16,7.16,8,238,30,2181,176,177,4,RL,1,M,24,R,2025-04-10_14h34.10.545,RewSL_RL_EEG,
ping,high,downRight,DOWN,green,l,lowA,Stimuli\green_bar1.png,Stimuli\green_bar1.png,Stimuli\ping.png,downLeft,lowB,midRight,lowC,midLeft,upLeft,upRight,4,rew_high,m,,,,,0,77,77,19,,,0.6,0.8,exp,z,0,0.4269462000229396,7.16,-7.16,-7.16,-7.16,10.14,0,-10.14,0,-7.16,7.16,7.16,7.16,8,248,31,2181,177,178,4,RL,1,M,24,R,2025-04-10_14h34.10.545,RewSL_RL_EEG,
ping,lowC,midLeft,UP,red,l,lowA,Stimuli\red_bar1.png,Stimuli\red_bar1.png,Stimuli\ping.png,downLeft,lowB,midRight,high,downRight,upLeft,upRight,4,rew_low,z,,,,,0,78,78,96,,,0.4,0.8,exp,m,0,0.48094310000305995,-10.14,0,-7.16,-7.16,10.14,0,7.16,-7.16,-7.16,7.16,7.16,7.16,8,118,30,2181,178,179,4,RL,1,M,24,R,2025-04-10_14h34.10.545,RewSL_RL_EEG,
ping,lowB,midRight,UP,red,l,lowA,Stimuli\red_bar1.png,Stimuli\red_bar1.png,Stimuli\ping.png,downLeft,high,downRight,lowC,midLeft,upLeft,upRight,4,rew_low,z,,,,,0,79,79,56,,,0.6,0.7,exp,z,1,0.33961920003639534,10.14,0,-7.16,-7.16,7.16,-7.16,-10.14,0,-7.16,7.16,7.16,7.16,8,128,30,2182,179,180,4,RL,1,M,24,R,2025-04-10_14h34.10.545,RewSL_RL_EEG,
ping,lowB,midRight,UP,red,r,lowA,Stimuli\red_bar1.png,Stimuli\red_bar1.png,Stimuli\ping.png,downLeft,high,downRight,lowC,midLeft,upLeft,upRight,4,rew_low,z,,,,,0,80,80,52,,,0.6,0.7,exp,z,1,0.49018470000009984,10.14,0,-7.16,-7.16,7.16,-7.16,-10.14,0,-7.16,7.16,7.16,7.16,8,128,30,2183,180,181,4,RL,1,M,24,R,2025-04-10_14h34.10.545,RewSL_RL_EEG,
ping,lowA,downLeft,DOWN,green,l,high,Stimuli\green_bar1.png,Stimuli\green_bar1.png,Stimuli\ping.png,downRight,lowB,midRight,lowC,midLeft,upLeft,upRight,4,rew_low,m,,,,,0,81,81,27,,,0.6,0.7,exp,m,1,0.47689240000909194,-7.16,-7.16,7.16,-7.16,10.14,0,-10.14,0,-7.16,7.16,7.16,7.16,8,238,30,2184,181,182,4,RL,1,M,24,R,2025-04-10_14h34.10.545,RewSL_RL_EEG,
ping,high,downRight,UP,red,l,lowA,Stimuli\red_bar1.png,Stimuli\red_bar1.png,Stimuli\ping.png,downLeft,lowB,midRight,lowC,midLeft,upLeft,upRight,4,rew_high,z,,,,,0,82,82,16,,,0.5,0.7,exp,m,0,0.4646017999621108,7.16,-7.16,-7.16,-7.16,10.14,0,-10.14,0,-7.16,7.16,7.16,7.16,8,148,31,2184,182,183,4,RL,1,M,24,R,2025-04-10_14h34.10.545,RewSL_RL_EEG,
ping,lowB,midRight,UP,green,l,lowA,Stimuli\green_bar1.png,Stimuli\green_bar1.png,Stimuli\ping.png,downLeft,high,downRight,lowC,midLeft,upLeft,upRight,4,rew_low,z,,,,,0,83,83,65,,,0.6,0.7,exp,m,0,0.43972919997759163,10.14,0,-7.16,-7.16,7.16,-7.16,-10.14,0,-7.16,7.16,7.16,7.16,8,128,30,2184,183,184,4,RL,1,M,24,R,2025-04-10_14h34.10.545,RewSL_RL_EEG,
ping,lowA,downLeft,DOWN,red,l,high,Stimuli\red_bar1.png,Stimuli\red_bar1.png,Stimuli\ping.png,downRight,lowB,midRight,lowC,midLeft,upLeft,upRight,4,rew_low,m,,,,,0,84,84,26,,,0.6,0.8,exp,z,0,0.5855675999773666,-7.16,-7.16,7.16,-7.16,10.14,0,-10.14,0,-7.16,7.16,7.16,7.16,8,238,30,2184,184,185,4,RL,1,M,24,R,2025-04-10_14h34.10.545,RewSL_RL_EEG,
ping,high,downRight,UP,red,r,lowA,Stimuli\red_bar1.png,Stimuli\red_bar1.png,Stimuli\ping.png,downLeft,lowB,midRight,lowC,midLeft,upLeft,upRight,4,rew_high,z,,,,,0,85,85,20,,,0.4,0.7,exp,m,0,0.3439613999798894,7.16,-7.16,-7.16,-7.16,10.14,0,-10.14,0,-7.16,7.16,7.16,7.16,8,148,31,2184,185,186,4,RL,1,M,24,R,2025-04-10_14h34.10.545,RewSL_RL_EEG,
ping,high,downRight,DOWN,green,r,lowA,Stimuli\green_bar1.png,Stimuli\green_bar1.png,Stimuli\ping.png,downLeft,lowB,midRight,lowC,midLeft,upLeft,upRight,4,rew_high,m,,,,,0,86,86,7,,,0.5,0.7,exp,m,1,0.3562396999914199,7.16,-7.16,-7.16,-7.16,10.14,0,-10.14,0,-7.16,7.16,7.16,7.16,8,248,31,2284,186,187,4,RL,1,M,24,R,2025-04-10_14h34.10.545,RewSL_RL_EEG,
ping,lowB,midRight,UP,green,l,lowA,Stimuli\green_bar1.png,Stimuli\green_bar1.png,Stimuli\ping.png,downLeft,high,downRight,lowC,midLeft,upLeft,upRight,4,rew_low,z,,,,,0,87,87,73,,,0.5,0.6,exp,z,1,0.4684798999805935,10.14,0,-7.16,-7.16,7.16,-7.16,-10.14,0,-7.16,7.16,7.16,7.16,8,128,30,2285,187,188,4,RL,1,M,24,R,2025-04-10_14h34.10.545,RewSL_RL_EEG,
ping,high,downRight,DOWN,red,r,lowA,Stimuli\red_bar1.png,Stimuli\red_bar1.png,Stimuli\ping.png,downLeft,lowB,midRight,lowC,midLeft,upLeft,upRight,4,rew_high,m,,,,,0,88,88,6,,,0.4,0.8,exp,m,1,0.3637367999763228,7.16,-7.16,-7.16,-7.16,10.14,0,-10.14,0,-7.16,7.16,7.16,7.16,8,248,31,2385,188,189,4,RL,1,M,24,R,2025-04-10_14h34.10.545,RewSL_RL_EEG,
ping,lowA,downLeft,UP,green,r,high,Stimuli\green_bar1.png,Stimuli\green_bar1.png,Stimuli\ping.png,downRight,lowB,midRight,lowC,midLeft,upLeft,upRight,4,rew_low,z,,,,,0,89,89,29,,,0.6,0.7,exp,z,1,0.45658340002410114,-7.16,-7.16,7.16,-7.16,10.14,0,-10.14,0,-7.16,7.16,7.16,7.16,8,138,30,2386,189,190,4,RL,1,M,24,R,2025-04-10_14h34.10.545,RewSL_RL_EEG,
ping,high,downRight,UP,red,r,lowA,Stimuli\red_bar1.png,Stimuli\red_bar1.png,Stimuli\ping.png,downLeft,lowB,midRight,lowC,midLeft,upLeft,upRight,4,rew_high,z,,,,,0,90,90,12,,,0.6,0.6,exp,m,0,0.3561138999648392,7.16,-7.16,-7.16,-7.16,10.14,0,-10.14,0,-7.16,7.16,7.16,7.16,8,148,31,2386,190,191,4,RL,1,M,24,R,2025-04-10_14h34.10.545,RewSL_RL_EEG,
ping,lowA,downLeft,DOWN,red,l,high,Stimuli\red_bar1.png,Stimuli\red_bar1.png,Stimuli\ping.png,downRight,lowB,midRight,lowC,midLeft,upLeft,upRight,4,rew_low,m,,,,,0,91,91,42,,,0.5,0.7,exp,z,0,0.4603269000072032,-7.16,-7.16,7.16,-7.16,10.14,0,-10.14,0,-7.16,7.16,7.16,7.16,8,238,30,2386,191,192,4,RL,1,M,24,R,2025-04-10_14h34.10.545,RewSL_RL_EEG,
ping,high,downRight,UP,green,r,lowA,Stimuli\green_bar1.png,Stimuli\green_bar1.png,Stimuli\ping.png,downLeft,lowB,midRight,lowC,midLeft,upLeft,upRight,4,rew_high,z,,,,,0,92,92,21,,,0.5,0.6,exp,z,1,0.5147045000339858,7.16,-7.16,-7.16,-7.16,10.14,0,-10.14,0,-7.16,7.16,7.16,7.16,8,148,31,2486,192,193,4,RL,1,M,24,R,2025-04-10_14h34.10.545,RewSL_RL_EEG,
ping,lowA,downLeft,DOWN,green,r,high,Stimuli\green_bar1.png,Stimuli\green_bar1.png,Stimuli\ping.png,downRight,lowB,midRight,lowC,midLeft,upLeft,upRight,4,rew_low,m,,,,,0,93,93,47,,,0.6,0.6,exp,z,0,0.42752879997715354,-7.16,-7.16,7.16,-7.16,10.14,0,-10.14,0,-7.16,7.16,7.16,7.16,8,238,30,2486,193,194,4,RL,1,M,24,R,2025-04-10_14h34.10.545,RewSL_RL_EEG,
ping,lowB,midRight,DOWN,green,r,lowA,Stimuli\green_bar1.png,Stimuli\green_bar1.png,Stimuli\ping.png,downLeft,high,downRight,lowC,midLeft,upLeft,upRight,4,rew_low,m,,,,,0,94,94,71,,,0.6,0.7,exp,m,1,0.4816342999693006,10.14,0,-7.16,-7.16,7.16,-7.16,-10.14,0,-7.16,7.16,7.16,7.16,8,228,30,2487,194,195,4,RL,1,M,24,R,2025-04-10_14h34.10.545,RewSL_RL_EEG,
ping,lowC,midLeft,DOWN,red,r,lowA,Stimuli\red_bar1.png,Stimuli\red_bar1.png,Stimuli\ping.png,downLeft,lowB,midRight,high,downRight,upLeft,upRight,4,rew_low,m,,,,,0,95,95,98,,,0.5,0.8,exp,z,0,0.48526280000805855,-10.14,0,-7.16,-7.16,10.14,0,7.16,-7.16,-7.16,7.16,7.16,7.16,8,218,30,2487,195,196,4,RL,1,M,24,R,2025-04-10_14h34.10.545,RewSL_RL_EEG,
ping,lowB,midRight,DOWN,red,l,lowA,Stimuli\red_bar1.png,Stimuli\red_bar1.png,Stimuli\ping.png,downLeft,high,downRight,lowC,midLeft,upLeft,upRight,4,rew_low,m,,,,,0,96,96,50,,,0.4,0.8,exp,z,0,0.5350532999727875,10.14,0,-7.16,-7.16,7.16,-7.16,-10.14,0,-7.16,7.16,7.16,7.16,8,228,30,2487,196,197,4,RL,1,M,24,R,2025-04-10_14h34.10.545,RewSL_RL_EEG,
ping,high,downRight,UP,green,l,lowA,Stimuli\green_bar1.png,Stimuli\green_bar1.png,Stimuli\ping.png,downLeft,lowB,midRight,lowC,midLeft,upLeft,upRight,4,rew_high,z,,,,,0,97,97,9,,,0.6,0.7,exp,m,0,0.4102364999707788,7.16,-7.16,-7.16,-7.16,10.14,0,-10.14,0,-7.16,7.16,7.16,7.16,8,148,31,2487,197,198,4,RL,1,M,24,R,2025-04-10_14h34.10.545,RewSL_RL_EEG,
ping,lowB,midRight,UP,green,r,lowA,Stimuli\green_bar1.png,Stimuli\green_bar1.png,Stimuli\ping.png,downLeft,high,downRight,lowC,midLeft,upLeft,upRight,4,rew_low,z,,,,,0,98,98,53,,,0.4,0.8,exp,m,0,0.4981296000187285,10.14,0,-7.16,-7.16,7.16,-7.16,-10.14,0,-7.16,7.16,7.16,7.16,8,128,30,2487,198,199,4,RL,1,M,24,R,2025-04-10_14h34.10.545,RewSL_RL_EEG,
ping,lowC,midLeft,UP,red,l,lowA,Stimuli\red_bar1.png,Stimuli\red_bar1.png,Stimuli\ping.png,downLeft,lowB,midRight,high,downRight,upLeft,upRight,4,rew_low,z,,,,,0,99,99,80,,,0.5,0.8,exp,m,0,0.3766713999793865,-10.14,0,-7.16,-7.16,10.14,0,7.16,-7.16,-7.16,7.16,7.16,7.16,8,118,30,2487,199,200,4,RL,1,M,24,R,2025-04-10_14h34.10.545,RewSL_RL_EEG,
ping,lowC,downLeft,UP,red,l,lowA,Stimuli\red_bar1.png,Stimuli\red_bar1.png,Stimuli\ping.png,midLeft,lowB,downRight,high,midRight,upLeft,upRight,2,rew_low,z,,,,,0,0,0,88,,,0.5,0.7,exp,m,0,0.5728046000003815,-7.16,-7.16,-10.14,0,7.16,-7.16,10.14,0,-7.16,7.16,7.16,7.16,4,134,30,2487,200,201,4,RL,1,M,24,R,2025-04-10_14h34.10.545,RewSL_RL_EEG,
ping,lowC,downLeft,DOWN,green,l,lowA,Stimuli\green_bar1.png,Stimuli\green_bar1.png,Stimuli\ping.png,midLeft,lowB,downRight,high,midRight,upLeft,upRight,2,rew_low,m,,,,,0,1,1,91,,,0.6,0.6,exp,z,0,0.24753329996019602,-7.16,-7.16,-10.14,0,7.16,-7.16,10.14,0,-7.16,7.16,7.16,7.16,4,234,30,2487,201,202,4,RL,1,M,24,R,2025-04-10_14h34.10.545,RewSL_RL_EEG,
ping,lowB,downRight,UP,green,l,lowA,Stimuli\green_bar1.png,Stimuli\green_bar1.png,Stimuli\ping.png,midLeft,high,midRight,lowC,downLeft,upLeft,upRight,2,rew_low,z,,,,,0,2,2,73,,,0.5,0.6,exp,m,0,0.41851410001982003,7.16,-7.16,-10.14,0,10.14,0,-7.16,-7.16,-7.16,7.16,7.16,7.16,4,144,30,2487,202,203,4,RL,1,M,24,R,2025-04-10_14h34.10.545,RewSL_RL_EEG,
ping,lowC,downLeft,DOWN,red,r,lowA,Stimuli\red_bar1.png,Stimuli\red_bar1.png,Stimuli\ping.png,midLeft,lowB,downRight,high,midRight,upLeft,upRight,2,rew_low,m,,,,,0,3,3,78,,,0.5,0.6,exp,m,1,0.2268853000132367,-7.16,-7.16,-10.14,0,7.16,-7.16,10.14,0,-7.16,7.16,7.16,7.16,4,234,30,2488,203,204,4,RL,1,M,24,R,2025-04-10_14h34.10.545,RewSL_RL_EEG,
ping,high,midRight,UP,green,r,lowA,Stimuli\green_bar1.png,Stimuli\green_bar1.png,Stimuli\ping.png,midLeft,lowB,downRight,lowC,downLeft,upLeft,upRight,2,rew_high,z,,,,,0,4,4,5,,,0.5,0.6,exp,z,1,0.4761182000511326,10.14,0,-10.14,0,7.16,-7.16,-7.16,-7.16,-7.16,7.16,7.16,7.16,4,124,31,2588,204,205,4,RL,1,M,24,R,2025-04-10_14h34.10.545,RewSL_RL_EEG,
ping,lowC,downLeft,UP,green,r,lowA,Stimuli\green_bar1.png,Stimuli\green_bar1.png,Stimuli\ping.png,midLeft,lowB,downRight,high,midRight,upLeft,upRight,2,rew_low,z,,,,,0,5,5,85,,,0.5,0.7,exp,m,0,0.48507430002791807,-7.16,-7.16,-10.14,0,7.16,-7.16,10.14,0,-7.16,7.16,7.16,7.16,4,134,30,2588,205,206,4,RL,1,M,24,R,2025-04-10_14h34.10.545,RewSL_RL_EEG,
ping,lowB,downRight,DOWN,green,r,lowA,Stimuli\green_bar1.png,Stimuli\green_bar1.png,Stimuli\ping.png,midLeft,high,midRight,lowC,downLeft,upLeft,upRight,2,rew_low,m,,,,,0,6,6,63,,,0.5,0.7,exp,m,1,0.4807861000299454,7.16,-7.16,-10.14,0,10.14,0,-7.16,-7.16,-7.16,7.16,7.16,7.16,4,244,30,2589,206,207,4,RL,1,M,24,R,2025-04-10_14h34.10.545,RewSL_RL_EEG,
ping,lowB,downRight,DOWN,green,l,lowA,Stimuli\green_bar1.png,Stimuli\green_bar1.png,Stimuli\ping.png,midLeft,high,midRight,lowC,downLeft,upLeft,upRight,2,rew_low,m,,,,,0,7,7,59,,,0.5,0.7,exp,m,1,0.3890970000065863,7.16,-7.16,-10.14,0,10.14,0,-7.16,-7.16,-7.16,7.16,7.16,7.16,4,244,30,2590,207,208,4,RL,1,M,24,R,2025-04-10_14h34.10.545,RewSL_RL_EEG,
ping,lowB,downRight,UP,green,r,lowA,Stimuli\green_bar1.png,Stimuli\green_bar1.png,Stimuli\ping.png,midLeft,high,midRight,lowC,downLeft,upLeft,upRight,2,rew_low,z,,,,,0,8,8,61,,,0.5,0.6,exp,z,1,0.4353758999495767,7.16,-7.16,-10.14,0,10.14,0,-7.16,-7.16,-7.16,7.16,7.16,7.16,4,144,30,2591,208,209,4,RL,1,M,24,R,2025-04-10_14h34.10.545,RewSL_RL_EEG,
ping,lowA,midLeft,DOWN,red,r,high,Stimuli\red_bar1.png,Stimuli\red_bar1.png,Stimuli\ping.png,midRight,lowB,downRight,lowC,downLeft,upLeft,upRight,2,rew_low,m,,,,,0,9,9,38,,,0.4,0.7,exp,m,1,0.46853350003948435,-10.14,0,10.14,0,7.16,-7.16,-7.16,-7.16,-7.16,7.16,7.16,7.16,4,214,30,2592,209,210,4,RL,1,M,24,R,2025-04-10_14h34.10.545,RewSL_RL_EEG,
ping,lowB,downRight,DOWN,red,r,lowA,Stimuli\red_bar1.png,Stimuli\red_bar1.png,Stimuli\ping.png,midLeft,high,midRight,lowC,downLeft,upLeft,upRight,2,rew_low,m,,,,,0,10,10,54,,,0.6,0.6,exp,z,0,0.4773595000151545,7.16,-7.16,-10.14,0,10.14,0,-7.16,-7.16,-7.16,7.16,7.16,7.16,4,244,30,2592,210,211,4,RL,1,M,24,R,2025-04-10_14h34.10.545,RewSL_RL_EEG,
ping,high,midRight,DOWN,green,l,lowA,Stimuli\green_bar1.png,Stimuli\green_bar1.png,Stimuli\ping.png,midLeft,lowB,downRight,lowC,downLeft,upLeft,upRight,2,rew_high,m,,,,,0,11,11,19,,,0.6,0.7,exp,m,1,0.36857539997436106,10.14,0,-10.14,0,7.16,-7.16,-7.16,-7.16,-7.16,7.16,7.16,7.16,4,224,31,2692,211,212,4,RL,1,M,24,R,2025-04-10_14h34.10.545,RewSL_RL_EEG,
ping,lowB,downRight,DOWN,green,r,lowA,Stimuli\green_bar1.png,Stimuli\green_bar1.png,Stimuli\ping.png,midLeft,high,midRight,lowC,downLeft,upLeft,upRight,2,rew_low,m,,,,,0,12,12,55,,,0.6,0.7,exp,m,1,0.2971949999919161,7.16,-7.16,-10.14,0,10.14,0,-7.16,-7.16,-7.16,7.16,7.16,7.16,4,244,30,2693,212,213,4,RL,1,M,24,R,2025-04-10_14h34.10.545,RewSL_RL_EEG,
ping,high,midRight,DOWN,green,l,lowA,Stimuli\green_bar1.png,Stimuli\green_bar1.png,Stimuli\ping.png,midLeft,lowB,downRight,lowC,downLeft,upLeft,upRight,2,rew_high,m,,,,,0,13,13,3,,,0.4,0.8,exp,m,1,0.3891997000318952,10.14,0,-10.14,0,7.16,-7.16,-7.16,-7.16,-7.16,7.16,7.16,7.16,4,224,31,2793,213,214,4,RL,1,M,24,R,2025-04-10_14h34.10.545,RewSL_RL_EEG,
ping,lowB,downRight,UP,green,l,lowA,Stimuli\green_bar1.png,Stimuli\green_bar1.png,Stimuli\ping.png,midLeft,high,midRight,lowC,downLeft,upLeft,upRight,2,rew_low,z,,,,,0,14,14,65,,,0.4,0.7,exp,z,1,0.4980381000204943,7.16,-7.16,-10.14,0,10.14,0,-7.16,-7.16,-7.16,7.16,7.16,7.16,4,144,30,2794,214,215,4,RL,1,M,24,R,2025-04-10_14h34.10.545,RewSL_RL_EEG,
ping,high,midRight,UP,red,r,lowA,Stimuli\red_bar1.png,Stimuli\red_bar1.png,Stimuli\ping.png,midLeft,lowB,downRight,lowC,downLeft,upLeft,upRight,2,rew_high,z,,,,,0,15,15,20,,,0.5,0.6,exp,m,0,0.6269203000119887,10.14,0,-10.14,0,7.16,-7.16,-7.16,-7.16,-7.16,7.16,7.16,7.16,4,124,31,2794,215,216,4,RL,1,M,24,R,2025-04-10_14h34.10.545,RewSL_RL_EEG,
ping,lowA,midLeft,UP,red,r,high,Stimuli\red_bar1.png,Stimuli\red_bar1.png,Stimuli\ping.png,midRight,lowB,downRight,lowC,downLeft,upLeft,upRight,2,rew_low,z,,,,,0,16,16,28,,,0.4,0.6,exp,z,1,0.5145159999956377,-10.14,0,10.14,0,7.16,-7.16,-7.16,-7.16,-7.16,7.16,7.16,7.16,4,114,30,2795,216,217,4,RL,1,M,24,R,2025-04-10_14h34.10.545,RewSL_RL_EEG,
ping,lowA,midLeft,DOWN,green,r,high,Stimuli\green_bar1.png,Stimuli\green_bar1.png,Stimuli\ping.png,midRight,lowB,downRight,lowC,downLeft,upLeft,upRight,2,rew_low,m,,,,,0,17,17,39,,,0.5,0.7,exp,z,0,0.42725619999691844,-10.14,0,10.14,0,7.16,-7.16,-7.16,-7.16,-7.16,7.16,7.16,7.16,4,214,30,2795,217,218,4,RL,1,M,24,R,2025-04-10_14h34.10.545,RewSL_RL_EEG,
ping,lowA,midLeft,DOWN,green,l,high,Stimuli\green_bar1.png,Stimuli\green_bar1.png,Stimuli\ping.png,midRight,lowB,downRight,lowC,downLeft,upLeft,upRight,2,rew_low,m,,,,,0,18,18,43,,,0.4,0.7,exp,z,0,0.506439600023441,-10.14,0,10.14,0,7.16,-7.16,-7.16,-7.16,-7.16,7.16,7.16,7.16,4,214,30,2795,218,219,4,RL,1,M,24,R,2025-04-10_14h34.10.545,RewSL_RL_EEG,
ping,lowB,downRight,DOWN,red,r,lowA,Stimuli\red_bar1.png,Stimuli\red_bar1.png,Stimuli\ping.png,midLeft,high,midRight,lowC,downLeft,upLeft,upRight,2,rew_low,m,,,,,0,19,19,62,,,0.4,0.6,exp,m,1,0.40227810002397746,7.16,-7.16,-10.14,0,10.14,0,-7.16,-7.16,-7.16,7.16,7.16,7.16,4,244,30,2796,219,220,4,RL,1,M,24,R,2025-04-10_14h34.10.545,RewSL_RL_EEG,
ping,lowB,downRight,UP,red,r,lowA,Stimuli\red_bar1.png,Stimuli\red_bar1.png,Stimuli\ping.png,midLeft,high,midRight,lowC,downLeft,upLeft,upRight,2,rew_low,z,,,,,0,20,20,68,,,0.5,0.7,exp,z,1,0.4852721000206657,7.16,-7.16,-10.14,0,10.14,0,-7.16,-7.16,-7.16,7.16,7.16,7.16,4,144,30,2797,220,221,4,RL,1,M,24,R,2025-04-10_14h34.10.545,RewSL_RL_EEG,
ping,lowB,downRight,DOWN,green,r,lowA,Stimuli\green_bar1.png,Stimuli\green_bar1.png,Stimuli\ping.png,midLeft,high,midRight,lowC,downLeft,upLeft,upRight,2,rew_low,m,,,,,0,21,21,71,,,0.5,0.7,exp,z,0,0.626970799989067,7.16,-7.16,-10.14,0,10.14,0,-7.16,-7.16,-7.16,7.16,7.16,7.16,4,244,30,2797,221,222,4,RL,1,M,24,R,2025-04-10_14h34.10.545,RewSL_RL_EEG,
ping,lowA,midLeft,DOWN,green,l,high,Stimuli\green_bar1.png,Stimuli\green_bar1.png,Stimuli\ping.png,midRight,lowB,downRight,lowC,downLeft,upLeft,upRight,2,rew_low,m,,,,,0,22,22,35,,,0.5,0.7,exp,m,1,0.489447400032077,-10.14,0,10.14,0,7.16,-7.16,-7.16,-7.16,-7.16,7.16,7.16,7.16,4,214,30,2798,222,223,4,RL,1,M,24,R,2025-04-10_14h34.10.545,RewSL_RL_EEG,
ping,lowC,downLeft,UP,red,r,lowA,Stimuli\red_bar1.png,Stimuli\red_bar1.png,Stimuli\ping.png,midLeft,lowB,downRight,high,midRight,upLeft,upRight,2,rew_low,z,,,,,0,23,23,92,,,0.4,0.7,exp,m,0,0.37308629998005927,-7.16,-7.16,-10.14,0,7.16,-7.16,10.14,0,-7.16,7.16,7.16,7.16,4,134,30,2798,223,224,4,RL,1,M,24,R,2025-04-10_14h34.10.545,RewSL_RL_EEG,
ping,high,midRight,UP,green,r,lowA,Stimuli\green_bar1.png,Stimuli\green_bar1.png,Stimuli\ping.png,midLeft,lowB,downRight,lowC,downLeft,upLeft,upRight,2,rew_high,z,,,,,0,24,24,13,,,0.5,0.7,exp,m,0,0.381586600036826,10.14,0,-10.14,0,7.16,-7.16,-7.16,-7.16,-7.16,7.16,7.16,7.16,4,124,31,2798,224,225,4,RL,1,M,24,R,2025-04-10_14h34.10.545,RewSL_RL_EEG,
ping,lowB,downRight,DOWN,red,r,lowA,Stimuli\red_bar1.png,Stimuli\red_bar1.png,Stimuli\ping.png,midLeft,high,midRight,lowC,downLeft,upLeft,upRight,2,rew_low,m,,,,,0,25,25,70,,,0.5,0.6,exp,m,1,0.38035509997280315,7.16,-7.16,-10.14,0,10.14,0,-7.16,-7.16,-7.16,7.16,7.16,7.16,4,244,30,2799,225,226,4,RL,1,M,24,R,2025-04-10_14h34.10.545,RewSL_RL_EEG,
ping,lowC,downLeft,DOWN,red,l,lowA,Stimuli\red_bar1.png,Stimuli\red_bar1.png,Stimuli\ping.png,midLeft,lowB,downRight,high,midRight,upLeft,upRight,2,rew_low,m,,,,,0,26,26,90,,,0.6,0.7,exp,z,0,0.41503309999825433,-7.16,-7.16,-10.14,0,7.16,-7.16,10.14,0,-7.16,7.16,7.16,7.16,4,234,30,2799,226,227,4,RL,1,M,24,R,2025-04-10_14h34.10.545,RewSL_RL_EEG,
ping,lowA,midLeft,DOWN,green,l,high,Stimuli\green_bar1.png,Stimuli\green_bar1.png,Stimuli\ping.png,midRight,lowB,downRight,lowC,downLeft,upLeft,upRight,2,rew_low,m,,,,,0,27,27,27,,,0.5,0.8,exp,m,1,0.5816967999562621,-10.14,0,10.14,0,7.16,-7.16,-7.16,-7.16,-7.16,7.16,7.16,7.16,4,214,30,2800,227,228,4,RL,1,M,24,R,2025-04-10_14h34.10.545,RewSL_RL_EEG,
ping,lowC,downLeft,DOWN,green,l,lowA,Stimuli\green_bar1.png,Stimuli\green_bar1.png,Stimuli\ping.png,midLeft,lowB,downRight,high,midRight,upLeft,upRight,2,rew_low,m,,,,,0,28,28,83,,,0.4,0.7,exp,m,1,0.48079290002351627,-7.16,-7.16,-10.14,0,7.16,-7.16,10.14,0,-7.16,7.16,7.16,7.16,4,234,30,2801,228,229,4,RL,1,M,24,R,2025-04-10_14h34.10.545,RewSL_RL_EEG,
ping,lowA,midLeft,UP,green,r,high,Stimuli\green_bar1.png,Stimuli\green_bar1.png,Stimuli\ping.png,midRight,lowB,downRight,lowC,downLeft,upLeft,upRight,2,rew_low,z,,,,,0,29,29,45,,,0.6,0.7,exp,z,1,0.5985866999835707,-10.14,0,10.14,0,7.16,-7.16,-7.16,-7.16,-7.16,7.16,7.16,7.16,4,114,30,2802,229,230,4,RL,1,M,24,R,2025-04-10_14h34.10.545,RewSL_RL_EEG,
ping,high,midRight,DOWN,green,r,lowA,Stimuli\green_bar1.png,Stimuli\green_bar1.png,Stimuli\ping.png,midLeft,lowB,downRight,lowC,downLeft,upLeft,upRight,2,rew_high,m,,,,,0,30,30,15,,,0.6,0.7,exp,m,1,0.42778070003259927,10.14,0,-10.14,0,7.16,-7.16,-7.16,-7.16,-7.16,7.16,7.16,7.16,4,224,31,2902,230,231,4,RL,1,M,24,R,2025-04-10_14h34.10.545,RewSL_RL_EEG,
ping,lowB,downRight,UP,red,l,lowA,Stimuli\red_bar1.png,Stimuli\red_bar1.png,Stimuli\ping.png,midLeft,high,midRight,lowC,downLeft,upLeft,upRight,2,rew_low,z,,,,,0,31,31,72,,,0.4,0.7,exp,m,0,0.39762409997638315,7.16,-7.16,-10.14,0,10.14,0,-7.16,-7.16,-7.16,7.16,7.16,7.16,4,144,30,2902,231,232,4,RL,1,M,24,R,2025-04-10_14h34.10.545,RewSL_RL_EEG,
ping,high,midRight,UP,red,l,lowA,Stimuli\red_bar1.png,Stimuli\red_bar1.png,Stimuli\ping.png,midLeft,lowB,downRight,lowC,downLeft,upLeft,upRight,2,rew_high,z,,,,,0,32,32,24,,,0.6,0.7,exp,z,1,0.4979915000149049,10.14,0,-10.14,0,7.16,-7.16,-7.16,-7.16,-7.16,7.16,7.16,7.16,4,124,31,3002,232,233,4,RL,1,M,24,R,2025-04-10_14h34.10.545,RewSL_RL_EEG,
ping,high,midRight,DOWN,red,r,lowA,Stimuli\red_bar1.png,Stimuli\red_bar1.png,Stimuli\ping.png,midLeft,lowB,downRight,lowC,downLeft,upLeft,upRight,2,rew_high,m,,,,,0,33,33,6,,,0.5,0.6,exp,m,1,0.4686941999825649,10.14,0,-10.14,0,7.16,-7.16,-7.16,-7.16,-7.16,7.16,7.16,7.16,4,224,31,3102,233,234,4,RL,1,M,24,R,2025-04-10_14h34.10.545,RewSL_RL_EEG,
ping,lowA,midLeft,UP,red,l,high,Stimuli\red_bar1.png,Stimuli\red_bar1.png,Stimuli\ping.png,midRight,lowB,downRight,lowC,downLeft,upLeft,upRight,2,rew_low,z,,,,,0,34,34,40,,,0.4,0.7,exp,z,1,0.4478472000337206,-10.14,0,10.14,0,7.16,-7.16,-7.16,-7.16,-7.16,7.16,7.16,7.16,4,114,30,3103,234,235,4,RL,1,M,24,R,2025-04-10_14h34.10.545,RewSL_RL_EEG,
ping,high,midRight,UP,red,l,lowA,Stimuli\red_bar1.png,Stimuli\red_bar1.png,Stimuli\ping.png,midLeft,lowB,downRight,lowC,downLeft,upLeft,upRight,2,rew_high,z,,,,,0,35,35,16,,,0.4,0.7,exp,z,1,0.5062826999928802,10.14,0,-10.14,0,7.16,-7.16,-7.16,-7.16,-7.16,7.16,7.16,7.16,4,124,31,3203,235,236,4,RL,1,M,24,R,2025-04-10_14h34.10.545,RewSL_RL_EEG,
ping,lowB,downRight,DOWN,red,l,lowA,Stimuli\red_bar1.png,Stimuli\red_bar1.png,Stimuli\ping.png,midLeft,high,midRight,lowC,downLeft,upLeft,upRight,2,rew_low,m,,,,,0,36,36,74,,,0.6,0.8,exp,m,1,0.4728082999936305,7.16,-7.16,-10.14,0,10.14,0,-7.16,-7.16,-7.16,7.16,7.16,7.16,4,244,30,3204,236,237,4,RL,1,M,24,R,2025-04-10_14h34.10.545,RewSL_RL_EEG,
ping,lowA,midLeft,DOWN,red,r,high,Stimuli\red_bar1.png,Stimuli\red_bar1.png,Stimuli\ping.png,midRight,lowB,downRight,lowC,downLeft,upLeft,upRight,2,rew_low,m,,,,,0,37,37,46,,,0.6,0.6,exp,z,0,0.43570330005604774,-10.14,0,10.14,0,7.16,-7.16,-7.16,-7.16,-7.16,7.16,7.16,7.16,4,214,30,3204,237,238,4,RL,1,M,24,R,2025-04-10_14h34.10.545,RewSL_RL_EEG,
ping,lowB,downRight,DOWN,green,l,lowA,Stimuli\green_bar1.png,Stimuli\green_bar1.png,Stimuli\ping.png,midLeft,high,midRight,lowC,downLeft,upLeft,upRight,2,rew_low,m,,,,,0,38,38,67,,,0.5,0.7,exp,m,1,0.4441083999699913,7.16,-7.16,-10.14,0,10.14,0,-7.16,-7.16,-7.16,7.16,7.16,7.16,4,244,30,3205,238,239,4,RL,1,M,24,R,2025-04-10_14h34.10.545,RewSL_RL_EEG,
ping,lowC,downLeft,DOWN,green,r,lowA,Stimuli\green_bar1.png,Stimuli\green_bar1.png,Stimuli\ping.png,midLeft,lowB,downRight,high,midRight,upLeft,upRight,2,rew_low,m,,,,,0,39,39,87,,,0.6,0.7,exp,m,1,0.40199329995084554,-7.16,-7.16,-10.14,0,7.16,-7.16,10.14,0,-7.16,7.16,7.16,7.16,4,234,30,3206,239,240,4,RL,1,M,24,R,2025-04-10_14h34.10.545,RewSL_RL_EEG,
ping,high,midRight,DOWN,red,l,lowA,Stimuli\red_bar1.png,Stimuli\red_bar1.png,Stimuli\ping.png,midLeft,lowB,downRight,lowC,downLeft,upLeft,upRight,2,rew_high,m,,,,,0,40,40,18,,,0.5,0.7,exp,m,1,0.41046370001276955,10.14,0,-10.14,0,7.16,-7.16,-7.16,-7.16,-7.16,7.16,7.16,7.16,4,224,31,3306,240,241,4,RL,1,M,24,R,2025-04-10_14h34.10.545,RewSL_RL_EEG,
ping,high,midRight,DOWN,green,r,lowA,Stimuli\green_bar1.png,Stimuli\green_bar1.png,Stimuli\ping.png,midLeft,lowB,downRight,lowC,downLeft,upLeft,upRight,2,rew_high,m,,,,,0,41,41,23,,,0.4,0.7,exp,m,1,0.34384260000661016,10.14,0,-10.14,0,7.16,-7.16,-7.16,-7.16,-7.16,7.16,7.16,7.16,4,224,31,3406,241,242,4,RL,1,M,24,R,2025-04-10_14h34.10.545,RewSL_RL_EEG,
ping,high,midRight,DOWN,green,r,lowA,Stimuli\green_bar1.png,Stimuli\green_bar1.png,Stimuli\ping.png,midLeft,lowB,downRight,lowC,downLeft,upLeft,upRight,2,rew_high,m,,,,,0,42,42,7,,,0.6,0.7,exp,m,1,0.33119100000476465,10.14,0,-10.14,0,7.16,-7.16,-7.16,-7.16,-7.16,7.16,7.16,7.16,4,224,31,3506,242,243,4,RL,1,M,24,R,2025-04-10_14h34.10.545,RewSL_RL_EEG,
ping,lowC,downLeft,DOWN,red,r,lowA,Stimuli\red_bar1.png,Stimuli\red_bar1.png,Stimuli\ping.png,midLeft,lowB,downRight,high,midRight,upLeft,upRight,2,rew_low,m,,,,,0,43,43,94,,,0.5,0.7,exp,m,1,0.4104174000094645,-7.16,-7.16,-10.14,0,7.16,-7.16,10.14,0,-7.16,7.16,7.16,7.16,4,234,30,3507,243,244,4,RL,1,M,24,R,2025-04-10_14h34.10.545,RewSL_RL_EEG,
ping,high,midRight,UP,red,r,lowA,Stimuli\red_bar1.png,Stimuli\red_bar1.png,Stimuli\ping.png,midLeft,lowB,downRight,lowC,downLeft,upLeft,upRight,2,rew_high,z,,,,,0,44,44,12,,,0.6,0.6,exp,z,1,0.41955459996825084,10.14,0,-10.14,0,7.16,-7.16,-7.16,-7.16,-7.16,7.16,7.16,7.16,4,124,31,3607,244,245,4,RL,1,M,24,R,2025-04-10_14h34.10.545,RewSL_RL_EEG,
ping,lowB,downRight,UP,red,r,lowA,Stimuli\red_bar1.png,Stimuli\red_bar1.png,Stimuli\ping.png,midLeft,high,midRight,lowC,downLeft,upLeft,upRight,2,rew_low,z,,,,,0,45,45,60,,,0.6,0.7,exp,m,0,0.3906332000042312,7.16,-7.16,-10.14,0,10.14,0,-7.16,-7.16,-7.16,7.16,7.16,7.16,4,144,30,3607,245,246,4,RL,1,M,24,R,2025-04-10_14h34.10.545,RewSL_RL_EEG,
ping,lowA,midLeft,UP,green,r,high,Stimuli\green_bar1.png,Stimuli\green_bar1.png,Stimuli\ping.png,midRight,lowB,downRight,lowC,downLeft,upLeft,upRight,2,rew_low,z,,,,,0,46,46,37,,,0.6,0.6,exp,m,0,0.6102534999954514,-10.14,0,10.14,0,7.16,-7.16,-7.16,-7.16,-7.16,7.16,7.16,7.16,4,114,30,3607,246,247,4,RL,1,M,24,R,2025-04-10_14h34.10.545,RewSL_RL_EEG,
ping,lowB,downRight,DOWN,red,l,lowA,Stimuli\red_bar1.png,Stimuli\red_bar1.png,Stimuli\ping.png,midLeft,high,midRight,lowC,downLeft,upLeft,upRight,2,rew_low,m,,,,,0,47,47,58,,,0.6,0.7,exp,m,1,0.48530030000256374,7.16,-7.16,-10.14,0,10.14,0,-7.16,-7.16,-7.16,7.16,7.16,7.16,4,244,30,3608,247,248,4,RL,1,M,24,R,2025-04-10_14h34.10.545,RewSL_RL_EEG,
ping,lowB,downRight,UP,green,r,lowA,Stimuli\green_bar1.png,Stimuli\green_bar1.png,Stimuli\ping.png,midLeft,high,midRight,lowC,downLeft,upLeft,upRight,2,rew_low,z,,,,,0,48,48,69,,,0.5,0.7,exp,z,1,0.5059349000221118,7.16,-7.16,-10.14,0,10.14,0,-7.16,-7.16,-7.16,7.16,7.16,7.16,4,144,30,3609,248,249,4,RL,1,M,24,R,2025-04-10_14h34.10.545,RewSL_RL_EEG,
ping,high,midRight,UP,green,r,lowA,Stimuli\green_bar1.png,Stimuli\green_bar1.png,Stimuli\ping.png,midLeft,lowB,downRight,lowC,downLeft,upLeft,upRight,2,rew_high,z,,,,,0,49,49,21,,,0.5,0.6,exp,m,0,0.6190744999912567,10.14,0,-10.14,0,7.16,-7.16,-7.16,-7.16,-7.16,7.16,7.16,7.16,4,124,31,3609,249,250,4,RL,1,M,24,R,2025-04-10_14h34.10.545,RewSL_RL_EEG,
ping,high,midRight,DOWN,red,r,lowA,Stimuli\red_bar1.png,Stimuli\red_bar1.png,Stimuli\ping.png,midLeft,lowB,downRight,lowC,downLeft,upLeft,upRight,2,rew_high,m,,,,,0,50,50,14,,,0.5,0.8,exp,m,1,0.5769332000054419,10.14,0,-10.14,0,7.16,-7.16,-7.16,-7.16,-7.16,7.16,7.16,7.16,4,224,31,3709,250,251,4,RL,1,M,24,R,2025-04-10_14h34.10.545,RewSL_RL_EEG,
ping,lowA,midLeft,DOWN,red,l,high,Stimuli\red_bar1.png,Stimuli\red_bar1.png,Stimuli\ping.png,midRight,lowB,downRight,lowC,downLeft,upLeft,upRight,2,rew_low,m,,,,,0,51,51,42,,,0.4,0.8,exp,m,1,0.5186831000028178,-10.14,0,10.14,0,7.16,-7.16,-7.16,-7.16,-7.16,7.16,7.16,7.16,4,214,30,3710,251,252,4,RL,1,M,24,R,2025-04-10_14h34.10.545,RewSL_RL_EEG,
ping,high,midRight,DOWN,green,l,lowA,Stimuli\green_bar1.png,Stimuli\green_bar1.png,Stimuli\ping.png,midLeft,lowB,downRight,lowC,downLeft,upLeft,upRight,2,rew_high,m,,,,,0,52,52,11,,,0.4,0.6,exp,m,1,0.6484904999961145,10.14,0,-10.14,0,7.16,-7.16,-7.16,-7.16,-7.16,7.16,7.16,7.16,4,224,31,3810,252,253,4,RL,1,M,24,R,2025-04-10_14h34.10.545,RewSL_RL_EEG,
ping,lowC,downLeft,UP,red,l,lowA,Stimuli\red_bar1.png,Stimuli\red_bar1.png,Stimuli\ping.png,midLeft,lowB,downRight,high,midRight,upLeft,upRight,2,rew_low,z,,,,,0,53,53,96,,,0.5,0.7,exp,z,1,0.5439811999676749,-7.16,-7.16,-10.14,0,7.16,-7.16,10.14,0,-7.16,7.16,7.16,7.16,4,134,30,3811,253,254,4,RL,1,M,24,R,2025-04-10_14h34.10.545,RewSL_RL_EEG,
ping,lowA,midLeft,UP,green,l,high,Stimuli\green_bar1.png,Stimuli\green_bar1.png,Stimuli\ping.png,midRight,lowB,downRight,lowC,downLeft,upLeft,upRight,2,rew_low,z,,,,,0,54,54,41,,,0.5,0.7,exp,z,1,0.4852414000197314,-10.14,0,10.14,0,7.16,-7.16,-7.16,-7.16,-7.16,7.16,7.16,7.16,4,114,30,3812,254,255,4,RL,1,M,24,R,2025-04-10_14h34.10.545,RewSL_RL_EEG,
ping,lowA,midLeft,UP,red,r,high,Stimuli\red_bar1.png,Stimuli\red_bar1.png,Stimuli\ping.png,midRight,lowB,downRight,lowC,downLeft,upLeft,upRight,2,rew_low,z,,,,,0,55,55,44,,,0.5,0.7,exp,z,1,0.3769512999569997,-10.14,0,10.14,0,7.16,-7.16,-7.16,-7.16,-7.16,7.16,7.16,7.16,4,114,30,3813,255,256,4,RL,1,M,24,R,2025-04-10_14h34.10.545,RewSL_RL_EEG,
ping,lowA,midLeft,UP,green,l,high,Stimuli\green_bar1.png,Stimuli\green_bar1.png,Stimuli\ping.png,midRight,lowB,downRight,lowC,downLeft,upLeft,upRight,2,rew_low,z,,,,,0,56,56,33,,,0.6,0.8,exp,m,0,0.4727662999648601,-10.14,0,10.14,0,7.16,-7.16,-7.16,-7.16,-7.16,7.16,7.16,7.16,4,114,30,3813,256,257,4,RL,1,M,24,R,2025-04-10_14h34.10.545,RewSL_RL_EEG,
ping,lowC,downLeft,UP,red,r,lowA,Stimuli\red_bar1.png,Stimuli\red_bar1.png,Stimuli\ping.png,midLeft,lowB,downRight,high,midRight,upLeft,upRight,2,rew_low,z,,,,,0,57,57,76,,,0.6,0.7,exp,z,1,0.44319499999983236,-7.16,-7.16,-10.14,0,7.16,-7.16,10.14,0,-7.16,7.16,7.16,7.16,4,134,30,3814,257,258,4,RL,1,M,24,R,2025-04-10_14h34.10.545,RewSL_RL_EEG,
ping,lowC,downLeft,UP,red,l,lowA,Stimuli\red_bar1.png,Stimuli\red_bar1.png,Stimuli\ping.png,midLeft,lowB,downRight,high,midRight,upLeft,upRight,2,rew_low,z,,,,,0,58,58,80,,,0.5,0.7,exp,z,1,0.33952630002750084,-7.16,-7.16,-10.14,0,7.16,-7.16,10.14,0,-7.16,7.16,7.16,7.16,4,134,30,3815,258,259,4,RL,1,M,24,R,2025-04-10_14h34.10.545,RewSL_RL_EEG,
ping,lowA,midLeft,UP,green,l,high,Stimuli\green_bar1.png,Stimuli\green_bar1.png,Stimuli\ping.png,midRight,lowB,downRight,lowC,downLeft,upLeft,upRight,2,rew_low,z,,,,,0,59,59,49,,,0.5,0.6,exp,m,0,0.5861514999996871,-10.14,0,10.14,0,7.16,-7.16,-7.16,-7.16,-7.16,7.16,7.16,7.16,4,114,30,3815,259,260,4,RL,1,M,24,R,2025-04-10_14h34.10.545,RewSL_RL_EEG,
ping,lowC,downLeft,DOWN,red,l,lowA,Stimuli\red_bar1.png,Stimuli\red_bar1.png,Stimuli\ping.png,midLeft,lowB,downRight,high,midRight,upLeft,upRight,2,rew_low,m,,,,,0,60,60,82,,,0.4,0.7,exp,z,0,0.3769594000186771,-7.16,-7.16,-10.14,0,7.16,-7.16,10.14,0,-7.16,7.16,7.16,7.16,4,234,30,3815,260,261,4,RL,1,M,24,R,2025-04-10_14h34.10.545,RewSL_RL_EEG,
ping,lowC,downLeft,DOWN,green,l,lowA,Stimuli\green_bar1.png,Stimuli\green_bar1.png,Stimuli\ping.png,midLeft,lowB,downRight,high,midRight,upLeft,upRight,2,rew_low,m,,,,,0,61,61,75,,,0.4,0.7,exp,m,1,0.5566599000012502,-7.16,-7.16,-10.14,0,7.16,-7.16,10.14,0,-7.16,7.16,7.16,7.16,4,234,30,3816,261,262,4,RL,1,M,24,R,2025-04-10_14h34.10.545,RewSL_RL_EEG,
ping,lowA,midLeft,UP,green,l,high,Stimuli\green_bar1.png,Stimuli\green_bar1.png,Stimuli\ping.png,midRight,lowB,downRight,lowC,downLeft,upLeft,upRight,2,rew_low,z,,,,,0,62,62,25,,,0.5,0.7,exp,z,1,0.48541030002525076,-10.14,0,10.14,0,7.16,-7.16,-7.16,-7.16,-7.16,7.16,7.16,7.16,4,114,30,3817,262,263,4,RL,1,M,24,R,2025-04-10_14h34.10.545,RewSL_RL_EEG,
ping,lowC,downLeft,DOWN,green,r,lowA,Stimuli\green_bar1.png,Stimuli\green_bar1.png,Stimuli\ping.png,midLeft,lowB,downRight,high,midRight,upLeft,upRight,2,rew_low,m,,,,,0,63,63,95,,,0.6,0.6,exp,z,0,0.44825670000864193,-7.16,-7.16,-10.14,0,7.16,-7.16,10.14,0,-7.16,7.16,7.16,7.16,4,234,30,3817,263,264,4,RL,1,M,24,R,2025-04-10_14h34.10.545,RewSL_RL_EEG,
ping,lowB,downRight,UP,green,l,lowA,Stimuli\green_bar1.png,Stimuli\green_bar1.png,Stimuli\ping.png,midLeft,high,midRight,lowC,downLeft,upLeft,upRight,2,rew_low,z,,,,,0,64,64,57,,,0.5,0.6,exp,m,0,0.4319777999771759,7.16,-7.16,-10.14,0,10.14,0,-7.16,-7.16,-7.16,7.16,7.16,7.16,4,144,30,3817,264,265,4,RL,1,M,24,R,2025-04-10_14h34.10.545,RewSL_RL_EEG,
ping,lowC,downLeft,UP,green,r,lowA,Stimuli\green_bar1.png,Stimuli\green_bar1.png,Stimuli\ping.png,midLeft,lowB,downRight,high,midRight,upLeft,upRight,2,rew_low,z,,,,,0,65,65,93,,,0.5,0.6,exp,z,1,0.46108630002709106,-7.16,-7.16,-10.14,0,7.16,-7.16,10.14,0,-7.16,7.16,7.16,7.16,4,134,30,3818,265,266,4,RL,1,M,24,R,2025-04-10_14h34.10.545,RewSL_RL_EEG,
ping,high,midRight,DOWN,red,l,lowA,Stimuli\red_bar1.png,Stimuli\red_bar1.png,Stimuli\ping.png,midLeft,lowB,downRight,lowC,downLeft,upLeft,upRight,2,rew_high,m,,,,,0,66,66,2,,,0.5,0.6,exp,m,1,0.47709780000150204,10.14,0,-10.14,0,7.16,-7.16,-7.16,-7.16,-7.16,7.16,7.16,7.16,4,224,31,3918,266,267,4,RL,1,M,24,R,2025-04-10_14h34.10.545,RewSL_RL_EEG,
ping,lowC,downLeft,UP,green,l,lowA,Stimuli\green_bar1.png,Stimuli\green_bar1.png,Stimuli\ping.png,midLeft,lowB,downRight,high,midRight,upLeft,upRight,2,rew_low,z,,,,,0,67,67,81,,,0.6,0.7,exp,m,0,0.5642195999971591,-7.16,-7.16,-10.14,0,7.16,-7.16,10.14,0,-7.16,7.16,7.16,7.16,4,134,30,3918,267,268,4,RL,1,M,24,R,2025-04-10_14h34.10.545,RewSL_RL_EEG,
ping,lowC,downLeft,DOWN,green,r,lowA,Stimuli\green_bar1.png,Stimuli\green_bar1.png,Stimuli\ping.png,midLeft,lowB,downRight,high,midRight,upLeft,upRight,2,rew_low,m,,,,,0,68,68,79,,,0.6,0.8,exp,m,1,0.6474191999877803,-7.16,-7.16,-10.14,0,7.16,-7.16,10.14,0,-7.16,7.16,7.16,7.16,4,234,30,3919,268,269,4,RL,1,M,24,R,2025-04-10_14h34.10.545,RewSL_RL_EEG,
ping,lowB,downRight,UP,red,l,lowA,Stimuli\red_bar1.png,Stimuli\red_bar1.png,Stimuli\ping.png,midLeft,high,midRight,lowC,downLeft,upLeft,upRight,2,rew_low,z,,,,,0,69,69,64,,,0.4,0.6,exp,z,1,0.522275900002569,7.16,-7.16,-10.14,0,10.14,0,-7.16,-7.16,-7.16,7.16,7.16,7.16,4,144,30,3920,269,270,4,RL,1,M,24,R,2025-04-10_14h34.10.545,RewSL_RL_EEG,
ping,lowA,midLeft,UP,red,l,high,Stimuli\red_bar1.png,Stimuli\red_bar1.png,Stimuli\ping.png,midRight,lowB,downRight,lowC,downLeft,upLeft,upRight,2,rew_low,z,,,,,0,70,70,48,,,0.6,0.8,exp,m,0,0.6685920000309125,-10.14,0,10.14,0,7.16,-7.16,-7.16,-7.16,-7.16,7.16,7.16,7.16,4,114,30,3920,270,271,4,RL,1,M,24,R,2025-04-10_14h34.10.545,RewSL_RL_EEG,
