trial_type,t_frequency,targetPos,Gap,arrayColor,targetOri,f1_frequency,TargetFile,stimuliFile,pingFile,f1_pos,f2_frequency,f2_pos,f3_frequency,f3_pos,f4_pos,f5_pos,Rlblock,Reward,corrAns,trials_p.thisRepN,trials_p.thisTrialN,trials_p.thisN,trials_p.thisIndex,trials_e.thisRepN,trials_e.thisTrialN,trials_e.thisN,trials_e.thisIndex,thisRow.t,notes,FIX,PINGdur,epoch,key_resp.keys,key_resp.corr,targetX,targetY,filler1X,filler1Y,filler2X,filler2Y,filler3X,filler3Y,filler4X,filler4Y,filler5X,filler5Y,pingID,ID,rewID,reward_sum,key_resp.rt,completed_trials,trial_count,participant,learning,session_nr,gender,age,handedness,date,expName,
ping,lowB,downLeft,UP,green,r,lowA,Stimuli\green_bar1.png,Stimuli\green_bar1.png,Stimuli\ping.png,midRight,high,midLeft,lowC,downRight,upLeft,upRight,1,rew_low,z,0,0,0,9,,,,,,,0.5,0.8,practice,None,0,-7.16,-7.16,10.14,0,-10.14,0,7.16,-7.16,-7.16,7.16,7.16,7.16,2,132,30,0,,,,8,RL,1,f,26,r,2025-04-16_12h13.50.142,RewSL_RL_EEG,
ping,lowC,downRight,DOWN,red,r,lowA,Stimuli\red_bar1.png,Stimuli\red_bar1.png,Stimuli\ping.png,midRight,lowB,downLeft,high,midLeft,upLeft,upRight,1,rew_low,m,0,1,1,12,,,,,,,0.4,0.6,practice,None,0,7.16,-7.16,10.14,0,-7.16,-7.16,-10.14,0,-7.16,7.16,7.16,7.16,2,242,30,0,,,,8,RL,1,f,26,r,2025-04-16_12h13.50.142,RewSL_RL_EEG,
ping,lowC,downRight,UP,red,l,lowA,Stimuli\red_bar1.png,Stimuli\red_bar1.png,Stimuli\ping.png,midRight,lowB,downLeft,high,midLeft,upLeft,upRight,1,rew_low,z,0,2,2,14,,,,,,,0.5,0.7,practice,None,0,7.16,-7.16,10.14,0,-7.16,-7.16,-10.14,0,-7.16,7.16,7.16,7.16,2,142,30,0,,,,8,RL,1,f,26,r,2025-04-16_12h13.50.142,RewSL_RL_EEG,
ping,lowB,downLeft,DOWN,red,r,lowA,Stimuli\red_bar1.png,Stimuli\red_bar1.png,Stimuli\ping.png,midRight,high,midLeft,lowC,downRight,upLeft,upRight,1,rew_low,m,0,3,3,10,,,,,,,0.5,0.6,practice,None,0,-7.16,-7.16,10.14,0,-10.14,0,7.16,-7.16,-7.16,7.16,7.16,7.16,2,232,30,0,,,,8,RL,1,f,26,r,2025-04-16_12h13.50.142,RewSL_RL_EEG,
ping,lowA,midRight,DOWN,green,l,high,Stimuli\green_bar1.png,Stimuli\green_bar1.png,Stimuli\ping.png,midLeft,lowB,downLeft,lowC,downRight,upLeft,upRight,1,rew_low,m,0,4,4,5,,,,,,,0.6,0.7,practice,None,0,10.14,0,-10.14,0,-7.16,-7.16,7.16,-7.16,-7.16,7.16,7.16,7.16,2,222,30,0,,,,8,RL,1,f,26,r,2025-04-16_12h13.50.142,RewSL_RL_EEG,
ping,high,midLeft,UP,green,l,lowA,Stimuli\green_bar1.png,Stimuli\green_bar1.png,Stimuli\ping.png,midRight,lowB,downLeft,lowC,downRight,upLeft,upRight,1,rew_high,z,0,5,5,1,,,,,,,0.5,0.7,practice,z,1,-10.14,0,10.14,0,-7.16,-7.16,7.16,-7.16,-7.16,7.16,7.16,7.16,2,112,31,100,0.9061132999922847,,,8,RL,1,f,26,r,2025-04-16_12h13.50.142,RewSL_RL_EEG,
ping,lowB,downLeft,DOWN,green,r,lowA,Stimuli\green_bar1.png,Stimuli\green_bar1.png,Stimuli\ping.png,midRight,high,midLeft,lowC,downRight,upLeft,upRight,1,rew_low,m,0,6,6,11,,,,,,,0.5,0.6,practice,None,0,-7.16,-7.16,10.14,0,-10.14,0,7.16,-7.16,-7.16,7.16,7.16,7.16,2,232,30,100,,,,8,RL,1,f,26,r,2025-04-16_12h13.50.142,RewSL_RL_EEG,
ping,lowA,midRight,UP,green,r,high,Stimuli\green_bar1.png,Stimuli\green_bar1.png,Stimuli\ping.png,midLeft,lowB,downLeft,lowC,downRight,upLeft,upRight,1,rew_low,z,0,7,7,7,,,,,,,0.6,0.7,practice,z,1,10.14,0,-10.14,0,-7.16,-7.16,7.16,-7.16,-7.16,7.16,7.16,7.16,2,122,30,101,1.1562147000076948,,,8,RL,1,f,26,r,2025-04-16_12h13.50.142,RewSL_RL_EEG,
ping,lowC,downRight,DOWN,green,r,lowA,Stimuli\green_bar1.png,Stimuli\green_bar1.png,Stimuli\ping.png,midRight,lowB,downLeft,high,midLeft,upLeft,upRight,1,rew_low,m,0,8,8,13,,,,,,,0.4,0.7,practice,None,0,7.16,-7.16,10.14,0,-7.16,-7.16,-10.14,0,-7.16,7.16,7.16,7.16,2,242,30,101,,,,8,RL,1,f,26,r,2025-04-16_12h13.50.142,RewSL_RL_EEG,
ping,high,midLeft,DOWN,green,l,lowA,Stimuli\green_bar1.png,Stimuli\green_bar1.png,Stimuli\ping.png,midRight,lowB,downLeft,lowC,downRight,upLeft,upRight,1,rew_high,m,0,9,9,3,,,,,,,0.5,0.6,practice,None,0,-10.14,0,10.14,0,-7.16,-7.16,7.16,-7.16,-7.16,7.16,7.16,7.16,2,212,31,101,,,,8,RL,1,f,26,r,2025-04-16_12h13.50.142,RewSL_RL_EEG,
ping,high,midLeft,UP,red,l,lowA,Stimuli\red_bar1.png,Stimuli\red_bar1.png,Stimuli\ping.png,midRight,lowB,downLeft,lowC,downRight,upLeft,upRight,1,rew_high,z,0,10,10,0,,,,,,,0.6,0.7,practice,z,1,-10.14,0,10.14,0,-7.16,-7.16,7.16,-7.16,-7.16,7.16,7.16,7.16,2,112,31,201,0.5360268999938853,,,8,RL,1,f,26,r,2025-04-16_12h13.50.142,RewSL_RL_EEG,
ping,lowA,midRight,UP,red,r,high,Stimuli\red_bar1.png,Stimuli\red_bar1.png,Stimuli\ping.png,midLeft,lowB,downLeft,lowC,downRight,upLeft,upRight,1,rew_low,z,0,11,11,6,,,,,,,0.6,0.7,practice,None,0,10.14,0,-10.14,0,-7.16,-7.16,7.16,-7.16,-7.16,7.16,7.16,7.16,2,122,30,201,,,,8,RL,1,f,26,r,2025-04-16_12h13.50.142,RewSL_RL_EEG,
ping,high,midLeft,DOWN,red,l,lowA,Stimuli\red_bar1.png,Stimuli\red_bar1.png,Stimuli\ping.png,midRight,lowB,downLeft,lowC,downRight,upLeft,upRight,1,rew_high,m,0,12,12,2,,,,,,,0.5,0.8,practice,None,0,-10.14,0,10.14,0,-7.16,-7.16,7.16,-7.16,-7.16,7.16,7.16,7.16,2,212,31,201,,,,8,RL,1,f,26,r,2025-04-16_12h13.50.142,RewSL_RL_EEG,
ping,lowC,downRight,UP,green,l,lowA,Stimuli\green_bar1.png,Stimuli\green_bar1.png,Stimuli\ping.png,midRight,lowB,downLeft,high,midLeft,upLeft,upRight,1,rew_low,z,0,13,13,15,,,,,,,0.5,0.8,practice,None,0,7.16,-7.16,10.14,0,-7.16,-7.16,-10.14,0,-7.16,7.16,7.16,7.16,2,142,30,201,,,,8,RL,1,f,26,r,2025-04-16_12h13.50.142,RewSL_RL_EEG,
ping,lowB,downLeft,UP,red,r,lowA,Stimuli\red_bar1.png,Stimuli\red_bar1.png,Stimuli\ping.png,midRight,high,midLeft,lowC,downRight,upLeft,upRight,1,rew_low,z,0,14,14,8,,,,,,,0.6,0.6,practice,None,0,-7.16,-7.16,10.14,0,-10.14,0,7.16,-7.16,-7.16,7.16,7.16,7.16,2,132,30,201,,,,8,RL,1,f,26,r,2025-04-16_12h13.50.142,RewSL_RL_EEG,
ping,lowA,midRight,DOWN,red,l,high,Stimuli\red_bar1.png,Stimuli\red_bar1.png,Stimuli\ping.png,midLeft,lowB,downLeft,lowC,downRight,upLeft,upRight,1,rew_low,m,0,15,15,4,,,,,,,0.4,0.7,practice,z,0,10.14,0,-10.14,0,-7.16,-7.16,7.16,-7.16,-7.16,7.16,7.16,7.16,2,222,30,201,0.8737523000017973,,,8,RL,1,f,26,r,2025-04-16_12h13.50.142,RewSL_RL_EEG,
ping,high,midRight,UP,green,r,lowA,Stimuli\green_bar1.png,Stimuli\green_bar1.png,Stimuli\ping.png,midLeft,lowB,downRight,lowC,downLeft,upLeft,upRight,2,rew_high,z,,,,,0,0,0,13,,,0.4,0.6,exp,None,0,10.14,0,-10.14,0,7.16,-7.16,-7.16,-7.16,-7.16,7.16,7.16,7.16,4,124,31,0,,0,1,8,RL,1,f,26,r,2025-04-16_12h13.50.142,RewSL_RL_EEG,
ping,high,midRight,UP,red,l,lowA,Stimuli\red_bar1.png,Stimuli\red_bar1.png,Stimuli\ping.png,midLeft,lowB,downRight,lowC,downLeft,upLeft,upRight,2,rew_high,z,,,,,0,1,1,24,,,0.4,0.6,exp,z,1,10.14,0,-10.14,0,7.16,-7.16,-7.16,-7.16,-7.16,7.16,7.16,7.16,4,124,31,100,0.48523849999764934,1,2,8,RL,1,f,26,r,2025-04-16_12h13.50.142,RewSL_RL_EEG,
ping,high,midRight,DOWN,red,l,lowA,Stimuli\red_bar1.png,Stimuli\red_bar1.png,Stimuli\ping.png,midLeft,lowB,downRight,lowC,downLeft,upLeft,upRight,2,rew_high,m,,,,,0,2,2,10,,,0.4,0.6,exp,None,0,10.14,0,-10.14,0,7.16,-7.16,-7.16,-7.16,-7.16,7.16,7.16,7.16,4,224,31,100,,2,3,8,RL,1,f,26,r,2025-04-16_12h13.50.142,RewSL_RL_EEG,
ping,lowA,midLeft,UP,red,l,high,Stimuli\red_bar1.png,Stimuli\red_bar1.png,Stimuli\ping.png,midRight,lowB,downRight,lowC,downLeft,upLeft,upRight,2,rew_low,z,,,,,0,3,3,32,,,0.6,0.7,exp,z,1,-10.14,0,10.14,0,7.16,-7.16,-7.16,-7.16,-7.16,7.16,7.16,7.16,4,114,30,101,0.3523183000070276,3,4,8,RL,1,f,26,r,2025-04-16_12h13.50.142,RewSL_RL_EEG,
ping,high,midRight,DOWN,green,r,lowA,Stimuli\green_bar1.png,Stimuli\green_bar1.png,Stimuli\ping.png,midLeft,lowB,downRight,lowC,downLeft,upLeft,upRight,2,rew_high,m,,,,,0,4,4,7,,,0.5,0.6,exp,None,0,10.14,0,-10.14,0,7.16,-7.16,-7.16,-7.16,-7.16,7.16,7.16,7.16,4,224,31,101,,4,5,8,RL,1,f,26,r,2025-04-16_12h13.50.142,RewSL_RL_EEG,
ping,lowA,midLeft,UP,green,r,high,Stimuli\green_bar1.png,Stimuli\green_bar1.png,Stimuli\ping.png,midRight,lowB,downRight,lowC,downLeft,upLeft,upRight,2,rew_low,z,,,,,0,5,5,29,,,0.4,0.7,exp,z,1,-10.14,0,10.14,0,7.16,-7.16,-7.16,-7.16,-7.16,7.16,7.16,7.16,4,114,30,102,0.38505650000297464,5,6,8,RL,1,f,26,r,2025-04-16_12h13.50.142,RewSL_RL_EEG,
ping,lowB,downRight,DOWN,red,r,lowA,Stimuli\red_bar1.png,Stimuli\red_bar1.png,Stimuli\ping.png,midLeft,high,midRight,lowC,downLeft,upLeft,upRight,2,rew_low,m,,,,,0,6,6,70,,,0.5,0.8,exp,None,0,7.16,-7.16,-10.14,0,10.14,0,-7.16,-7.16,-7.16,7.16,7.16,7.16,4,244,30,102,,6,7,8,RL,1,f,26,r,2025-04-16_12h13.50.142,RewSL_RL_EEG,
ping,high,midRight,DOWN,green,l,lowA,Stimuli\green_bar1.png,Stimuli\green_bar1.png,Stimuli\ping.png,midLeft,lowB,downRight,lowC,downLeft,upLeft,upRight,2,rew_high,m,,,,,0,7,7,11,,,0.5,0.8,exp,None,0,10.14,0,-10.14,0,7.16,-7.16,-7.16,-7.16,-7.16,7.16,7.16,7.16,4,224,31,102,,7,8,8,RL,1,f,26,r,2025-04-16_12h13.50.142,RewSL_RL_EEG,
ping,lowC,downLeft,DOWN,red,r,lowA,Stimuli\red_bar1.png,Stimuli\red_bar1.png,Stimuli\ping.png,midLeft,lowB,downRight,high,midRight,upLeft,upRight,2,rew_low,m,,,,,0,8,8,78,,,0.4,0.6,exp,None,0,-7.16,-7.16,-10.14,0,7.16,-7.16,10.14,0,-7.16,7.16,7.16,7.16,4,234,30,102,,8,9,8,RL,1,f,26,r,2025-04-16_12h13.50.142,RewSL_RL_EEG,
ping,lowA,midLeft,DOWN,red,l,high,Stimuli\red_bar1.png,Stimuli\red_bar1.png,Stimuli\ping.png,midRight,lowB,downRight,lowC,downLeft,upLeft,upRight,2,rew_low,m,,,,,0,9,9,42,,,0.5,0.8,exp,m,1,-10.14,0,10.14,0,7.16,-7.16,-7.16,-7.16,-7.16,7.16,7.16,7.16,4,214,30,103,0.7268498999910662,9,10,8,RL,1,f,26,r,2025-04-16_12h13.50.142,RewSL_RL_EEG,
ping,high,midRight,UP,green,l,lowA,Stimuli\green_bar1.png,Stimuli\green_bar1.png,Stimuli\ping.png,midLeft,lowB,downRight,lowC,downLeft,upLeft,upRight,2,rew_high,z,,,,,0,10,10,17,,,0.5,0.6,exp,None,0,10.14,0,-10.14,0,7.16,-7.16,-7.16,-7.16,-7.16,7.16,7.16,7.16,4,124,31,103,,10,11,8,RL,1,f,26,r,2025-04-16_12h13.50.142,RewSL_RL_EEG,
ping,lowB,downRight,DOWN,green,l,lowA,Stimuli\green_bar1.png,Stimuli\green_bar1.png,Stimuli\ping.png,midLeft,high,midRight,lowC,downLeft,upLeft,upRight,2,rew_low,m,,,,,0,11,11,59,,,0.4,0.7,exp,m,1,7.16,-7.16,-10.14,0,10.14,0,-7.16,-7.16,-7.16,7.16,7.16,7.16,4,244,30,104,1.0435789000039222,11,12,8,RL,1,f,26,r,2025-04-16_12h13.50.142,RewSL_RL_EEG,
ping,lowA,midLeft,DOWN,green,r,high,Stimuli\green_bar1.png,Stimuli\green_bar1.png,Stimuli\ping.png,midRight,lowB,downRight,lowC,downLeft,upLeft,upRight,2,rew_low,m,,,,,0,12,12,31,,,0.5,0.8,exp,m,1,-10.14,0,10.14,0,7.16,-7.16,-7.16,-7.16,-7.16,7.16,7.16,7.16,4,214,30,105,0.7979110000014771,12,13,8,RL,1,f,26,r,2025-04-16_12h13.50.142,RewSL_RL_EEG,
ping,lowA,midLeft,UP,red,l,high,Stimuli\red_bar1.png,Stimuli\red_bar1.png,Stimuli\ping.png,midRight,lowB,downRight,lowC,downLeft,upLeft,upRight,2,rew_low,z,,,,,0,13,13,40,,,0.5,0.7,exp,z,1,-10.14,0,10.14,0,7.16,-7.16,-7.16,-7.16,-7.16,7.16,7.16,7.16,4,114,30,106,0.44796239999413956,13,14,8,RL,1,f,26,r,2025-04-16_12h13.50.142,RewSL_RL_EEG,
ping,lowC,downLeft,DOWN,green,l,lowA,Stimuli\green_bar1.png,Stimuli\green_bar1.png,Stimuli\ping.png,midLeft,lowB,downRight,high,midRight,upLeft,upRight,2,rew_low,m,,,,,0,14,14,91,,,0.6,0.6,exp,None,0,-7.16,-7.16,-10.14,0,7.16,-7.16,10.14,0,-7.16,7.16,7.16,7.16,4,234,30,106,,14,15,8,RL,1,f,26,r,2025-04-16_12h13.50.142,RewSL_RL_EEG,
ping,high,midRight,UP,green,l,lowA,Stimuli\green_bar1.png,Stimuli\green_bar1.png,Stimuli\ping.png,midLeft,lowB,downRight,lowC,downLeft,upLeft,upRight,2,rew_high,z,,,,,0,15,15,1,,,0.4,0.8,exp,z,1,10.14,0,-10.14,0,7.16,-7.16,-7.16,-7.16,-7.16,7.16,7.16,7.16,4,124,31,206,0.44019350000598934,15,16,8,RL,1,f,26,r,2025-04-16_12h13.50.142,RewSL_RL_EEG,
ping,lowC,downLeft,DOWN,red,l,lowA,Stimuli\red_bar1.png,Stimuli\red_bar1.png,Stimuli\ping.png,midLeft,lowB,downRight,high,midRight,upLeft,upRight,2,rew_low,m,,,,,0,16,16,82,,,0.4,0.8,exp,z,0,-7.16,-7.16,-10.14,0,7.16,-7.16,10.14,0,-7.16,7.16,7.16,7.16,4,234,30,206,0.5936529000027804,16,17,8,RL,1,f,26,r,2025-04-16_12h13.50.142,RewSL_RL_EEG,
ping,high,midRight,UP,red,r,lowA,Stimuli\red_bar1.png,Stimuli\red_bar1.png,Stimuli\ping.png,midLeft,lowB,downRight,lowC,downLeft,upLeft,upRight,2,rew_high,z,,,,,0,17,17,12,,,0.5,0.6,exp,z,1,10.14,0,-10.14,0,7.16,-7.16,-7.16,-7.16,-7.16,7.16,7.16,7.16,4,124,31,306,0.9390321999962907,17,18,8,RL,1,f,26,r,2025-04-16_12h13.50.142,RewSL_RL_EEG,
ping,lowB,downRight,UP,red,l,lowA,Stimuli\red_bar1.png,Stimuli\red_bar1.png,Stimuli\ping.png,midLeft,high,midRight,lowC,downLeft,upLeft,upRight,2,rew_low,z,,,,,0,18,18,56,,,0.5,0.7,exp,None,0,7.16,-7.16,-10.14,0,10.14,0,-7.16,-7.16,-7.16,7.16,7.16,7.16,4,144,30,306,,18,19,8,RL,1,f,26,r,2025-04-16_12h13.50.142,RewSL_RL_EEG,
ping,lowB,downRight,UP,green,l,lowA,Stimuli\green_bar1.png,Stimuli\green_bar1.png,Stimuli\ping.png,midLeft,high,midRight,lowC,downLeft,upLeft,upRight,2,rew_low,z,,,,,0,19,19,73,,,0.4,0.7,exp,z,1,7.16,-7.16,-10.14,0,10.14,0,-7.16,-7.16,-7.16,7.16,7.16,7.16,4,144,30,307,0.8305474000080721,19,20,8,RL,1,f,26,r,2025-04-16_12h13.50.142,RewSL_RL_EEG,
ping,lowA,midLeft,DOWN,green,l,high,Stimuli\green_bar1.png,Stimuli\green_bar1.png,Stimuli\ping.png,midRight,lowB,downRight,lowC,downLeft,upLeft,upRight,2,rew_low,m,,,,,0,20,20,43,,,0.4,0.7,exp,m,1,-10.14,0,10.14,0,7.16,-7.16,-7.16,-7.16,-7.16,7.16,7.16,7.16,4,214,30,308,0.5270075000007637,20,21,8,RL,1,f,26,r,2025-04-16_12h13.50.142,RewSL_RL_EEG,
ping,high,midRight,UP,green,r,lowA,Stimuli\green_bar1.png,Stimuli\green_bar1.png,Stimuli\ping.png,midLeft,lowB,downRight,lowC,downLeft,upLeft,upRight,2,rew_high,z,,,,,0,21,21,21,,,0.5,0.8,exp,z,1,10.14,0,-10.14,0,7.16,-7.16,-7.16,-7.16,-7.16,7.16,7.16,7.16,4,124,31,408,0.7728051999874879,21,22,8,RL,1,f,26,r,2025-04-16_12h13.50.142,RewSL_RL_EEG,
ping,lowC,downLeft,DOWN,green,r,lowA,Stimuli\green_bar1.png,Stimuli\green_bar1.png,Stimuli\ping.png,midLeft,lowB,downRight,high,midRight,upLeft,upRight,2,rew_low,m,,,,,0,22,22,95,,,0.5,0.7,exp,None,0,-7.16,-7.16,-10.14,0,7.16,-7.16,10.14,0,-7.16,7.16,7.16,7.16,4,234,30,408,,22,23,8,RL,1,f,26,r,2025-04-16_12h13.50.142,RewSL_RL_EEG,
ping,lowB,downRight,UP,green,r,lowA,Stimuli\green_bar1.png,Stimuli\green_bar1.png,Stimuli\ping.png,midLeft,high,midRight,lowC,downLeft,upLeft,upRight,2,rew_low,z,,,,,0,23,23,69,,,0.5,0.6,exp,m,0,7.16,-7.16,-10.14,0,10.14,0,-7.16,-7.16,-7.16,7.16,7.16,7.16,4,144,30,408,0.7865338999981759,23,24,8,RL,1,f,26,r,2025-04-16_12h13.50.142,RewSL_RL_EEG,
ping,lowC,downLeft,DOWN,red,l,lowA,Stimuli\red_bar1.png,Stimuli\red_bar1.png,Stimuli\ping.png,midLeft,lowB,downRight,high,midRight,upLeft,upRight,2,rew_low,m,,,,,0,24,24,90,,,0.5,0.7,exp,None,0,-7.16,-7.16,-10.14,0,7.16,-7.16,10.14,0,-7.16,7.16,7.16,7.16,4,234,30,408,,24,25,8,RL,1,f,26,r,2025-04-16_12h13.50.142,RewSL_RL_EEG,
ping,lowC,downLeft,DOWN,red,r,lowA,Stimuli\red_bar1.png,Stimuli\red_bar1.png,Stimuli\ping.png,midLeft,lowB,downRight,high,midRight,upLeft,upRight,2,rew_low,m,,,,,0,25,25,86,,,0.5,0.7,exp,None,0,-7.16,-7.16,-10.14,0,7.16,-7.16,10.14,0,-7.16,7.16,7.16,7.16,4,234,30,408,,25,26,8,RL,1,f,26,r,2025-04-16_12h13.50.142,RewSL_RL_EEG,
ping,lowC,downLeft,UP,red,l,lowA,Stimuli\red_bar1.png,Stimuli\red_bar1.png,Stimuli\ping.png,midLeft,lowB,downRight,high,midRight,upLeft,upRight,2,rew_low,z,,,,,0,26,26,96,,,0.4,0.7,exp,None,0,-7.16,-7.16,-10.14,0,7.16,-7.16,10.14,0,-7.16,7.16,7.16,7.16,4,134,30,408,,26,27,8,RL,1,f,26,r,2025-04-16_12h13.50.142,RewSL_RL_EEG,
ping,lowB,downRight,UP,red,r,lowA,Stimuli\red_bar1.png,Stimuli\red_bar1.png,Stimuli\ping.png,midLeft,high,midRight,lowC,downLeft,upLeft,upRight,2,rew_low,z,,,,,0,27,27,68,,,0.5,0.8,exp,z,1,7.16,-7.16,-10.14,0,10.14,0,-7.16,-7.16,-7.16,7.16,7.16,7.16,4,144,30,409,0.739075600009528,27,28,8,RL,1,f,26,r,2025-04-16_12h13.50.142,RewSL_RL_EEG,
ping,high,midRight,DOWN,red,l,lowA,Stimuli\red_bar1.png,Stimuli\red_bar1.png,Stimuli\ping.png,midLeft,lowB,downRight,lowC,downLeft,upLeft,upRight,2,rew_high,m,,,,,0,28,28,18,,,0.4,0.6,exp,z,0,10.14,0,-10.14,0,7.16,-7.16,-7.16,-7.16,-7.16,7.16,7.16,7.16,4,224,31,409,0.7776353000081144,28,29,8,RL,1,f,26,r,2025-04-16_12h13.50.142,RewSL_RL_EEG,
ping,lowA,midLeft,DOWN,red,r,high,Stimuli\red_bar1.png,Stimuli\red_bar1.png,Stimuli\ping.png,midRight,lowB,downRight,lowC,downLeft,upLeft,upRight,2,rew_low,m,,,,,0,29,29,30,,,0.4,0.8,exp,m,1,-10.14,0,10.14,0,7.16,-7.16,-7.16,-7.16,-7.16,7.16,7.16,7.16,4,214,30,410,0.8768246000108775,29,30,8,RL,1,f,26,r,2025-04-16_12h13.50.142,RewSL_RL_EEG,
ping,lowC,downLeft,UP,green,r,lowA,Stimuli\green_bar1.png,Stimuli\green_bar1.png,Stimuli\ping.png,midLeft,lowB,downRight,high,midRight,upLeft,upRight,2,rew_low,z,,,,,0,30,30,77,,,0.5,0.7,exp,None,0,-7.16,-7.16,-10.14,0,7.16,-7.16,10.14,0,-7.16,7.16,7.16,7.16,4,134,30,410,,30,31,8,RL,1,f,26,r,2025-04-16_12h13.50.142,RewSL_RL_EEG,
ping,lowA,midLeft,UP,red,r,high,Stimuli\red_bar1.png,Stimuli\red_bar1.png,Stimuli\ping.png,midRight,lowB,downRight,lowC,downLeft,upLeft,upRight,2,rew_low,z,,,,,0,31,31,36,,,0.5,0.8,exp,z,1,-10.14,0,10.14,0,7.16,-7.16,-7.16,-7.16,-7.16,7.16,7.16,7.16,4,114,30,411,0.5229453000065405,31,32,8,RL,1,f,26,r,2025-04-16_12h13.50.142,RewSL_RL_EEG,
ping,high,midRight,DOWN,green,l,lowA,Stimuli\green_bar1.png,Stimuli\green_bar1.png,Stimuli\ping.png,midLeft,lowB,downRight,lowC,downLeft,upLeft,upRight,2,rew_high,m,,,,,0,32,32,19,,,0.5,0.6,exp,None,0,10.14,0,-10.14,0,7.16,-7.16,-7.16,-7.16,-7.16,7.16,7.16,7.16,4,224,31,411,,32,33,8,RL,1,f,26,r,2025-04-16_12h13.50.142,RewSL_RL_EEG,
ping,lowA,midLeft,UP,green,r,high,Stimuli\green_bar1.png,Stimuli\green_bar1.png,Stimuli\ping.png,midRight,lowB,downRight,lowC,downLeft,upLeft,upRight,2,rew_low,z,,,,,0,33,33,37,,,0.4,0.8,exp,z,1,-10.14,0,10.14,0,7.16,-7.16,-7.16,-7.16,-7.16,7.16,7.16,7.16,4,114,30,412,0.4856043000036152,33,34,8,RL,1,f,26,r,2025-04-16_12h13.50.142,RewSL_RL_EEG,
ping,lowB,downRight,DOWN,red,l,lowA,Stimuli\red_bar1.png,Stimuli\red_bar1.png,Stimuli\ping.png,midLeft,high,midRight,lowC,downLeft,upLeft,upRight,2,rew_low,m,,,,,0,34,34,66,,,0.5,0.8,exp,None,0,7.16,-7.16,-10.14,0,10.14,0,-7.16,-7.16,-7.16,7.16,7.16,7.16,4,244,30,412,,34,35,8,RL,1,f,26,r,2025-04-16_12h13.50.142,RewSL_RL_EEG,
ping,lowA,midLeft,DOWN,red,l,high,Stimuli\red_bar1.png,Stimuli\red_bar1.png,Stimuli\ping.png,midRight,lowB,downRight,lowC,downLeft,upLeft,upRight,2,rew_low,m,,,,,0,35,35,34,,,0.5,0.6,exp,m,1,-10.14,0,10.14,0,7.16,-7.16,-7.16,-7.16,-7.16,7.16,7.16,7.16,4,214,30,413,0.7223703999916324,35,36,8,RL,1,f,26,r,2025-04-16_12h13.50.142,RewSL_RL_EEG,
ping,high,midRight,DOWN,red,r,lowA,Stimuli\red_bar1.png,Stimuli\red_bar1.png,Stimuli\ping.png,midLeft,lowB,downRight,lowC,downLeft,upLeft,upRight,2,rew_high,m,,,,,0,36,36,22,,,0.5,0.6,exp,None,0,10.14,0,-10.14,0,7.16,-7.16,-7.16,-7.16,-7.16,7.16,7.16,7.16,4,224,31,413,,36,37,8,RL,1,f,26,r,2025-04-16_12h13.50.142,RewSL_RL_EEG,
ping,lowA,midLeft,UP,red,r,high,Stimuli\red_bar1.png,Stimuli\red_bar1.png,Stimuli\ping.png,midRight,lowB,downRight,lowC,downLeft,upLeft,upRight,2,rew_low,z,,,,,0,37,37,44,,,0.6,0.7,exp,z,1,-10.14,0,10.14,0,7.16,-7.16,-7.16,-7.16,-7.16,7.16,7.16,7.16,4,114,30,414,0.3731541000015568,37,38,8,RL,1,f,26,r,2025-04-16_12h13.50.142,RewSL_RL_EEG,
ping,lowA,midLeft,UP,green,l,high,Stimuli\green_bar1.png,Stimuli\green_bar1.png,Stimuli\ping.png,midRight,lowB,downRight,lowC,downLeft,upLeft,upRight,2,rew_low,z,,,,,0,38,38,33,,,0.5,0.7,exp,z,1,-10.14,0,10.14,0,7.16,-7.16,-7.16,-7.16,-7.16,7.16,7.16,7.16,4,114,30,415,0.5101852999941912,38,39,8,RL,1,f,26,r,2025-04-16_12h13.50.142,RewSL_RL_EEG,
ping,lowC,downLeft,UP,red,r,lowA,Stimuli\red_bar1.png,Stimuli\red_bar1.png,Stimuli\ping.png,midLeft,lowB,downRight,high,midRight,upLeft,upRight,2,rew_low,z,,,,,0,39,39,92,,,0.4,0.7,exp,None,0,-7.16,-7.16,-10.14,0,7.16,-7.16,10.14,0,-7.16,7.16,7.16,7.16,4,134,30,415,,39,40,8,RL,1,f,26,r,2025-04-16_12h13.50.142,RewSL_RL_EEG,
ping,lowB,downRight,DOWN,green,r,lowA,Stimuli\green_bar1.png,Stimuli\green_bar1.png,Stimuli\ping.png,midLeft,high,midRight,lowC,downLeft,upLeft,upRight,2,rew_low,m,,,,,0,40,40,63,,,0.4,0.7,exp,z,0,7.16,-7.16,-10.14,0,10.14,0,-7.16,-7.16,-7.16,7.16,7.16,7.16,4,244,30,415,0.6808935000008205,40,41,8,RL,1,f,26,r,2025-04-16_12h13.50.142,RewSL_RL_EEG,
ping,lowB,downRight,DOWN,green,l,lowA,Stimuli\green_bar1.png,Stimuli\green_bar1.png,Stimuli\ping.png,midLeft,high,midRight,lowC,downLeft,upLeft,upRight,2,rew_low,m,,,,,0,41,41,67,,,0.5,0.7,exp,None,0,7.16,-7.16,-10.14,0,10.14,0,-7.16,-7.16,-7.16,7.16,7.16,7.16,4,244,30,415,,41,42,8,RL,1,f,26,r,2025-04-16_12h13.50.142,RewSL_RL_EEG,
ping,lowB,downRight,DOWN,green,l,lowA,Stimuli\green_bar1.png,Stimuli\green_bar1.png,Stimuli\ping.png,midLeft,high,midRight,lowC,downLeft,upLeft,upRight,2,rew_low,m,,,,,0,42,42,51,,,0.5,0.6,exp,None,0,7.16,-7.16,-10.14,0,10.14,0,-7.16,-7.16,-7.16,7.16,7.16,7.16,4,244,30,415,,42,43,8,RL,1,f,26,r,2025-04-16_12h13.50.142,RewSL_RL_EEG,
ping,lowC,downLeft,DOWN,green,r,lowA,Stimuli\green_bar1.png,Stimuli\green_bar1.png,Stimuli\ping.png,midLeft,lowB,downRight,high,midRight,upLeft,upRight,2,rew_low,m,,,,,0,43,43,79,,,0.5,0.6,exp,None,0,-7.16,-7.16,-10.14,0,7.16,-7.16,10.14,0,-7.16,7.16,7.16,7.16,4,234,30,415,,43,44,8,RL,1,f,26,r,2025-04-16_12h13.50.142,RewSL_RL_EEG,
ping,lowC,downLeft,UP,green,l,lowA,Stimuli\green_bar1.png,Stimuli\green_bar1.png,Stimuli\ping.png,midLeft,lowB,downRight,high,midRight,upLeft,upRight,2,rew_low,z,,,,,0,44,44,81,,,0.6,0.6,exp,z,1,-7.16,-7.16,-10.14,0,7.16,-7.16,10.14,0,-7.16,7.16,7.16,7.16,4,134,30,416,0.4523036000027787,44,45,8,RL,1,f,26,r,2025-04-16_12h13.50.142,RewSL_RL_EEG,
ping,lowA,midLeft,UP,green,l,high,Stimuli\green_bar1.png,Stimuli\green_bar1.png,Stimuli\ping.png,midRight,lowB,downRight,lowC,downLeft,upLeft,upRight,2,rew_low,z,,,,,0,45,45,25,,,0.5,0.8,exp,z,1,-10.14,0,10.14,0,7.16,-7.16,-7.16,-7.16,-7.16,7.16,7.16,7.16,4,114,30,417,0.42719649999344256,45,46,8,RL,1,f,26,r,2025-04-16_12h13.50.142,RewSL_RL_EEG,
ping,lowC,downLeft,UP,red,l,lowA,Stimuli\red_bar1.png,Stimuli\red_bar1.png,Stimuli\ping.png,midLeft,lowB,downRight,high,midRight,upLeft,upRight,2,rew_low,z,,,,,0,46,46,80,,,0.5,0.8,exp,z,1,-7.16,-7.16,-10.14,0,7.16,-7.16,10.14,0,-7.16,7.16,7.16,7.16,4,134,30,418,0.531356000006781,46,47,8,RL,1,f,26,r,2025-04-16_12h13.50.142,RewSL_RL_EEG,
ping,lowA,midLeft,DOWN,green,r,high,Stimuli\green_bar1.png,Stimuli\green_bar1.png,Stimuli\ping.png,midRight,lowB,downRight,lowC,downLeft,upLeft,upRight,2,rew_low,m,,,,,0,47,47,47,,,0.5,0.8,exp,None,0,-10.14,0,10.14,0,7.16,-7.16,-7.16,-7.16,-7.16,7.16,7.16,7.16,4,214,30,418,,47,48,8,RL,1,f,26,r,2025-04-16_12h13.50.142,RewSL_RL_EEG,
ping,lowB,downRight,DOWN,red,l,lowA,Stimuli\red_bar1.png,Stimuli\red_bar1.png,Stimuli\ping.png,midLeft,high,midRight,lowC,downLeft,upLeft,upRight,2,rew_low,m,,,,,0,48,48,74,,,0.5,0.8,exp,m,1,7.16,-7.16,-10.14,0,10.14,0,-7.16,-7.16,-7.16,7.16,7.16,7.16,4,244,30,419,0.7813230000028852,48,49,8,RL,1,f,26,r,2025-04-16_12h13.50.142,RewSL_RL_EEG,
ping,lowB,downRight,UP,green,r,lowA,Stimuli\green_bar1.png,Stimuli\green_bar1.png,Stimuli\ping.png,midLeft,high,midRight,lowC,downLeft,upLeft,upRight,2,rew_low,z,,,,,0,49,49,61,,,0.5,0.8,exp,None,0,7.16,-7.16,-10.14,0,10.14,0,-7.16,-7.16,-7.16,7.16,7.16,7.16,4,144,30,419,,49,50,8,RL,1,f,26,r,2025-04-16_12h13.50.142,RewSL_RL_EEG,
ping,lowB,downRight,UP,red,r,lowA,Stimuli\red_bar1.png,Stimuli\red_bar1.png,Stimuli\ping.png,midLeft,high,midRight,lowC,downLeft,upLeft,upRight,2,rew_low,z,,,,,0,50,50,60,,,0.4,0.7,exp,m,0,7.16,-7.16,-10.14,0,10.14,0,-7.16,-7.16,-7.16,7.16,7.16,7.16,4,144,30,419,0.5933581999997841,50,51,8,RL,1,f,26,r,2025-04-16_12h13.50.142,RewSL_RL_EEG,
ping,lowC,downLeft,DOWN,green,l,lowA,Stimuli\green_bar1.png,Stimuli\green_bar1.png,Stimuli\ping.png,midLeft,lowB,downRight,high,midRight,upLeft,upRight,2,rew_low,m,,,,,0,51,51,75,,,0.6,0.7,exp,z,0,-7.16,-7.16,-10.14,0,7.16,-7.16,10.14,0,-7.16,7.16,7.16,7.16,4,234,30,419,0.47341510000114795,51,52,8,RL,1,f,26,r,2025-04-16_12h13.50.142,RewSL_RL_EEG,
ping,high,midRight,UP,green,r,lowA,Stimuli\green_bar1.png,Stimuli\green_bar1.png,Stimuli\ping.png,midLeft,lowB,downRight,lowC,downLeft,upLeft,upRight,2,rew_high,z,,,,,0,52,52,5,,,0.6,0.8,exp,z,1,10.14,0,-10.14,0,7.16,-7.16,-7.16,-7.16,-7.16,7.16,7.16,7.16,4,124,31,519,0.5224373000091873,52,53,8,RL,1,f,26,r,2025-04-16_12h13.50.142,RewSL_RL_EEG,
ping,lowB,downRight,DOWN,red,l,lowA,Stimuli\red_bar1.png,Stimuli\red_bar1.png,Stimuli\ping.png,midLeft,high,midRight,lowC,downLeft,upLeft,upRight,2,rew_low,m,,,,,0,53,53,50,,,0.5,0.8,exp,z,0,7.16,-7.16,-10.14,0,10.14,0,-7.16,-7.16,-7.16,7.16,7.16,7.16,4,244,30,519,0.41856649999681395,53,54,8,RL,1,f,26,r,2025-04-16_12h13.50.142,RewSL_RL_EEG,
ping,lowB,downRight,UP,red,r,lowA,Stimuli\red_bar1.png,Stimuli\red_bar1.png,Stimuli\ping.png,midLeft,high,midRight,lowC,downLeft,upLeft,upRight,2,rew_low,z,,,,,0,54,54,52,,,0.4,0.6,exp,z,1,7.16,-7.16,-10.14,0,10.14,0,-7.16,-7.16,-7.16,7.16,7.16,7.16,4,144,30,520,0.4304453999939142,54,55,8,RL,1,f,26,r,2025-04-16_12h13.50.142,RewSL_RL_EEG,
ping,lowC,downLeft,DOWN,green,l,lowA,Stimuli\green_bar1.png,Stimuli\green_bar1.png,Stimuli\ping.png,midLeft,lowB,downRight,high,midRight,upLeft,upRight,2,rew_low,m,,,,,0,55,55,83,,,0.5,0.7,exp,z,0,-7.16,-7.16,-10.14,0,7.16,-7.16,10.14,0,-7.16,7.16,7.16,7.16,4,234,30,520,0.3059650000068359,55,56,8,RL,1,f,26,r,2025-04-16_12h13.50.142,RewSL_RL_EEG,
ping,lowC,downLeft,UP,green,r,lowA,Stimuli\green_bar1.png,Stimuli\green_bar1.png,Stimuli\ping.png,midLeft,lowB,downRight,high,midRight,upLeft,upRight,2,rew_low,z,,,,,0,56,56,93,,,0.5,0.7,exp,z,1,-7.16,-7.16,-10.14,0,7.16,-7.16,10.14,0,-7.16,7.16,7.16,7.16,4,134,30,521,0.48907700000563636,56,57,8,RL,1,f,26,r,2025-04-16_12h13.50.142,RewSL_RL_EEG,
ping,lowB,downRight,UP,green,l,lowA,Stimuli\green_bar1.png,Stimuli\green_bar1.png,Stimuli\ping.png,midLeft,high,midRight,lowC,downLeft,upLeft,upRight,2,rew_low,z,,,,,0,57,57,65,,,0.5,0.6,exp,z,1,7.16,-7.16,-10.14,0,10.14,0,-7.16,-7.16,-7.16,7.16,7.16,7.16,4,144,30,522,0.5189853000047151,57,58,8,RL,1,f,26,r,2025-04-16_12h13.50.142,RewSL_RL_EEG,
ping,high,midRight,UP,green,l,lowA,Stimuli\green_bar1.png,Stimuli\green_bar1.png,Stimuli\ping.png,midLeft,lowB,downRight,lowC,downLeft,upLeft,upRight,2,rew_high,z,,,,,0,58,58,9,,,0.4,0.8,exp,z,1,10.14,0,-10.14,0,7.16,-7.16,-7.16,-7.16,-7.16,7.16,7.16,7.16,4,124,31,622,0.3691446000011638,58,59,8,RL,1,f,26,r,2025-04-16_12h13.50.142,RewSL_RL_EEG,
ping,lowA,midLeft,UP,red,r,high,Stimuli\red_bar1.png,Stimuli\red_bar1.png,Stimuli\ping.png,midRight,lowB,downRight,lowC,downLeft,upLeft,upRight,2,rew_low,z,,,,,0,59,59,28,,,0.4,0.7,exp,z,1,-10.14,0,10.14,0,7.16,-7.16,-7.16,-7.16,-7.16,7.16,7.16,7.16,4,114,30,623,0.37722880000364967,59,60,8,RL,1,f,26,r,2025-04-16_12h13.50.142,RewSL_RL_EEG,
ping,lowA,midLeft,UP,green,l,high,Stimuli\green_bar1.png,Stimuli\green_bar1.png,Stimuli\ping.png,midRight,lowB,downRight,lowC,downLeft,upLeft,upRight,2,rew_low,z,,,,,0,60,60,49,,,0.5,0.6,exp,z,1,-10.14,0,10.14,0,7.16,-7.16,-7.16,-7.16,-7.16,7.16,7.16,7.16,4,114,30,624,0.2947014999954263,60,61,8,RL,1,f,26,r,2025-04-16_12h13.50.142,RewSL_RL_EEG,
ping,high,midRight,DOWN,red,r,lowA,Stimuli\red_bar1.png,Stimuli\red_bar1.png,Stimuli\ping.png,midLeft,lowB,downRight,lowC,downLeft,upLeft,upRight,2,rew_high,m,,,,,0,61,61,6,,,0.5,0.7,exp,z,0,10.14,0,-10.14,0,7.16,-7.16,-7.16,-7.16,-7.16,7.16,7.16,7.16,4,224,31,624,0.3056700000015553,61,62,8,RL,1,f,26,r,2025-04-16_12h13.50.142,RewSL_RL_EEG,
ping,lowC,downLeft,UP,green,r,lowA,Stimuli\green_bar1.png,Stimuli\green_bar1.png,Stimuli\ping.png,midLeft,lowB,downRight,high,midRight,upLeft,upRight,2,rew_low,z,,,,,0,62,62,85,,,0.6,0.6,exp,z,1,-7.16,-7.16,-10.14,0,7.16,-7.16,10.14,0,-7.16,7.16,7.16,7.16,4,134,30,625,0.9438061000109883,62,63,8,RL,1,f,26,r,2025-04-16_12h13.50.142,RewSL_RL_EEG,
ping,high,midRight,DOWN,green,r,lowA,Stimuli\green_bar1.png,Stimuli\green_bar1.png,Stimuli\ping.png,midLeft,lowB,downRight,lowC,downLeft,upLeft,upRight,2,rew_high,m,,,,,0,63,63,23,,,0.5,0.8,exp,m,1,10.14,0,-10.14,0,7.16,-7.16,-7.16,-7.16,-7.16,7.16,7.16,7.16,4,224,31,725,0.7275281999900471,63,64,8,RL,1,f,26,r,2025-04-16_12h13.50.142,RewSL_RL_EEG,
ping,high,midRight,UP,red,l,lowA,Stimuli\red_bar1.png,Stimuli\red_bar1.png,Stimuli\ping.png,midLeft,lowB,downRight,lowC,downLeft,upLeft,upRight,2,rew_high,z,,,,,0,64,64,16,,,0.6,0.7,exp,z,1,10.14,0,-10.14,0,7.16,-7.16,-7.16,-7.16,-7.16,7.16,7.16,7.16,4,124,31,825,0.7271183999982895,64,65,8,RL,1,f,26,r,2025-04-16_12h13.50.142,RewSL_RL_EEG,
ping,lowB,downRight,DOWN,red,r,lowA,Stimuli\red_bar1.png,Stimuli\red_bar1.png,Stimuli\ping.png,midLeft,high,midRight,lowC,downLeft,upLeft,upRight,2,rew_low,m,,,,,0,65,65,54,,,0.5,0.6,exp,m,1,7.16,-7.16,-10.14,0,10.14,0,-7.16,-7.16,-7.16,7.16,7.16,7.16,4,244,30,826,0.818994000001112,65,66,8,RL,1,f,26,r,2025-04-16_12h13.50.142,RewSL_RL_EEG,
ping,lowA,midLeft,DOWN,green,l,high,Stimuli\green_bar1.png,Stimuli\green_bar1.png,Stimuli\ping.png,midRight,lowB,downRight,lowC,downLeft,upLeft,upRight,2,rew_low,m,,,,,0,66,66,35,,,0.5,0.6,exp,z,0,-10.14,0,10.14,0,7.16,-7.16,-7.16,-7.16,-7.16,7.16,7.16,7.16,4,214,30,826,0.36882770000374876,66,67,8,RL,1,f,26,r,2025-04-16_12h13.50.142,RewSL_RL_EEG,
ping,lowA,midLeft,UP,green,r,high,Stimuli\green_bar1.png,Stimuli\green_bar1.png,Stimuli\ping.png,midRight,lowB,downRight,lowC,downLeft,upLeft,upRight,2,rew_low,z,,,,,0,67,67,45,,,0.4,0.7,exp,z,1,-10.14,0,10.14,0,7.16,-7.16,-7.16,-7.16,-7.16,7.16,7.16,7.16,4,114,30,827,0.4478030000027502,67,68,8,RL,1,f,26,r,2025-04-16_12h13.50.142,RewSL_RL_EEG,
ping,lowC,downLeft,UP,red,r,lowA,Stimuli\red_bar1.png,Stimuli\red_bar1.png,Stimuli\ping.png,midLeft,lowB,downRight,high,midRight,upLeft,upRight,2,rew_low,z,,,,,0,68,68,76,,,0.5,0.7,exp,m,0,-7.16,-7.16,-10.14,0,7.16,-7.16,10.14,0,-7.16,7.16,7.16,7.16,4,134,30,827,0.747842099997797,68,69,8,RL,1,f,26,r,2025-04-16_12h13.50.142,RewSL_RL_EEG,
ping,lowB,downRight,UP,green,r,lowA,Stimuli\green_bar1.png,Stimuli\green_bar1.png,Stimuli\ping.png,midLeft,high,midRight,lowC,downLeft,upLeft,upRight,2,rew_low,z,,,,,0,69,69,53,,,0.5,0.6,exp,m,0,7.16,-7.16,-10.14,0,10.14,0,-7.16,-7.16,-7.16,7.16,7.16,7.16,4,144,30,827,1.0145048999984283,69,70,8,RL,1,f,26,r,2025-04-16_12h13.50.142,RewSL_RL_EEG,
ping,lowC,downLeft,UP,green,l,lowA,Stimuli\green_bar1.png,Stimuli\green_bar1.png,Stimuli\ping.png,midLeft,lowB,downRight,high,midRight,upLeft,upRight,2,rew_low,z,,,,,0,70,70,97,,,0.5,0.7,exp,z,1,-7.16,-7.16,-10.14,0,7.16,-7.16,10.14,0,-7.16,7.16,7.16,7.16,4,134,30,828,0.7649680000031367,70,71,8,RL,1,f,26,r,2025-04-16_12h13.50.142,RewSL_RL_EEG,
ping,high,midRight,DOWN,red,l,lowA,Stimuli\red_bar1.png,Stimuli\red_bar1.png,Stimuli\ping.png,midLeft,lowB,downRight,lowC,downLeft,upLeft,upRight,2,rew_high,m,,,,,0,71,71,2,,,0.5,0.6,exp,m,1,10.14,0,-10.14,0,7.16,-7.16,-7.16,-7.16,-7.16,7.16,7.16,7.16,4,224,31,928,0.7309023999987403,71,72,8,RL,1,f,26,r,2025-04-16_12h13.50.142,RewSL_RL_EEG,
ping,lowA,midLeft,DOWN,green,r,high,Stimuli\green_bar1.png,Stimuli\green_bar1.png,Stimuli\ping.png,midRight,lowB,downRight,lowC,downLeft,upLeft,upRight,2,rew_low,m,,,,,0,72,72,39,,,0.6,0.8,exp,m,1,-10.14,0,10.14,0,7.16,-7.16,-7.16,-7.16,-7.16,7.16,7.16,7.16,4,214,30,929,0.7815254000015557,72,73,8,RL,1,f,26,r,2025-04-16_12h13.50.142,RewSL_RL_EEG,
ping,high,midRight,DOWN,green,r,lowA,Stimuli\green_bar1.png,Stimuli\green_bar1.png,Stimuli\ping.png,midLeft,lowB,downRight,lowC,downLeft,upLeft,upRight,2,rew_high,m,,,,,0,73,73,15,,,0.5,0.6,exp,m,1,10.14,0,-10.14,0,7.16,-7.16,-7.16,-7.16,-7.16,7.16,7.16,7.16,4,224,31,1029,0.7554303000069922,73,74,8,RL,1,f,26,r,2025-04-16_12h13.50.142,RewSL_RL_EEG,
ping,lowA,midLeft,DOWN,red,l,high,Stimuli\red_bar1.png,Stimuli\red_bar1.png,Stimuli\ping.png,midRight,lowB,downRight,lowC,downLeft,upLeft,upRight,2,rew_low,m,,,,,0,74,74,26,,,0.5,0.7,exp,m,1,-10.14,0,10.14,0,7.16,-7.16,-7.16,-7.16,-7.16,7.16,7.16,7.16,4,214,30,1030,0.6387595999985933,74,75,8,RL,1,f,26,r,2025-04-16_12h13.50.142,RewSL_RL_EEG,
ping,high,midRight,UP,red,l,lowA,Stimuli\red_bar1.png,Stimuli\red_bar1.png,Stimuli\ping.png,midLeft,lowB,downRight,lowC,downLeft,upLeft,upRight,2,rew_high,z,,,,,0,75,75,8,,,0.5,0.6,exp,z,1,10.14,0,-10.14,0,7.16,-7.16,-7.16,-7.16,-7.16,7.16,7.16,7.16,4,124,31,1130,0.8226285999990068,75,76,8,RL,1,f,26,r,2025-04-16_12h13.50.142,RewSL_RL_EEG,
ping,lowA,midLeft,DOWN,green,l,high,Stimuli\green_bar1.png,Stimuli\green_bar1.png,Stimuli\ping.png,midRight,lowB,downRight,lowC,downLeft,upLeft,upRight,2,rew_low,m,,,,,0,76,76,27,,,0.6,0.7,exp,m,1,-10.14,0,10.14,0,7.16,-7.16,-7.16,-7.16,-7.16,7.16,7.16,7.16,4,214,30,1131,0.6977163000119617,76,77,8,RL,1,f,26,r,2025-04-16_12h13.50.142,RewSL_RL_EEG,
ping,lowB,downRight,DOWN,red,r,lowA,Stimuli\red_bar1.png,Stimuli\red_bar1.png,Stimuli\ping.png,midLeft,high,midRight,lowC,downLeft,upLeft,upRight,2,rew_low,m,,,,,0,77,77,62,,,0.5,0.6,exp,z,0,7.16,-7.16,-10.14,0,10.14,0,-7.16,-7.16,-7.16,7.16,7.16,7.16,4,244,30,1131,0.9477848999958951,77,78,8,RL,1,f,26,r,2025-04-16_12h13.50.142,RewSL_RL_EEG,
ping,lowA,midLeft,DOWN,red,r,high,Stimuli\red_bar1.png,Stimuli\red_bar1.png,Stimuli\ping.png,midRight,lowB,downRight,lowC,downLeft,upLeft,upRight,2,rew_low,m,,,,,0,78,78,38,,,0.6,0.7,exp,m,1,-10.14,0,10.14,0,7.16,-7.16,-7.16,-7.16,-7.16,7.16,7.16,7.16,4,214,30,1132,0.8813766999955988,78,79,8,RL,1,f,26,r,2025-04-16_12h13.50.142,RewSL_RL_EEG,
ping,lowC,downLeft,UP,green,l,lowA,Stimuli\green_bar1.png,Stimuli\green_bar1.png,Stimuli\ping.png,midLeft,lowB,downRight,high,midRight,upLeft,upRight,2,rew_low,z,,,,,0,79,79,89,,,0.4,0.7,exp,z,1,-7.16,-7.16,-10.14,0,7.16,-7.16,10.14,0,-7.16,7.16,7.16,7.16,4,134,30,1133,0.7650308000011137,79,80,8,RL,1,f,26,r,2025-04-16_12h13.50.142,RewSL_RL_EEG,
ping,high,midRight,DOWN,red,r,lowA,Stimuli\red_bar1.png,Stimuli\red_bar1.png,Stimuli\ping.png,midLeft,lowB,downRight,lowC,downLeft,upLeft,upRight,2,rew_high,m,,,,,0,80,80,14,,,0.5,0.7,exp,m,1,10.14,0,-10.14,0,7.16,-7.16,-7.16,-7.16,-7.16,7.16,7.16,7.16,4,224,31,1233,0.6312864000065019,80,81,8,RL,1,f,26,r,2025-04-16_12h13.50.142,RewSL_RL_EEG,
ping,lowC,downLeft,DOWN,red,r,lowA,Stimuli\red_bar1.png,Stimuli\red_bar1.png,Stimuli\ping.png,midLeft,lowB,downRight,high,midRight,upLeft,upRight,2,rew_low,m,,,,,0,81,81,98,,,0.5,0.7,exp,m,1,-7.16,-7.16,-10.14,0,7.16,-7.16,10.14,0,-7.16,7.16,7.16,7.16,4,234,30,1234,0.7438124000036623,81,82,8,RL,1,f,26,r,2025-04-16_12h13.50.142,RewSL_RL_EEG,
ping,lowC,downLeft,DOWN,red,r,lowA,Stimuli\red_bar1.png,Stimuli\red_bar1.png,Stimuli\ping.png,midLeft,lowB,downRight,high,midRight,upLeft,upRight,2,rew_low,m,,,,,0,82,82,94,,,0.6,0.6,exp,m,1,-7.16,-7.16,-10.14,0,7.16,-7.16,10.14,0,-7.16,7.16,7.16,7.16,4,234,30,1235,0.6104612000053748,82,83,8,RL,1,f,26,r,2025-04-16_12h13.50.142,RewSL_RL_EEG,
ping,lowB,downRight,UP,red,l,lowA,Stimuli\red_bar1.png,Stimuli\red_bar1.png,Stimuli\ping.png,midLeft,high,midRight,lowC,downLeft,upLeft,upRight,2,rew_low,z,,,,,0,83,83,64,,,0.6,0.7,exp,z,1,7.16,-7.16,-10.14,0,10.14,0,-7.16,-7.16,-7.16,7.16,7.16,7.16,4,144,30,1236,1.1104616999946302,83,84,8,RL,1,f,26,r,2025-04-16_12h13.50.142,RewSL_RL_EEG,
ping,lowB,downRight,UP,green,l,lowA,Stimuli\green_bar1.png,Stimuli\green_bar1.png,Stimuli\ping.png,midLeft,high,midRight,lowC,downLeft,upLeft,upRight,2,rew_low,z,,,,,0,84,84,57,,,0.6,0.7,exp,z,1,7.16,-7.16,-10.14,0,10.14,0,-7.16,-7.16,-7.16,7.16,7.16,7.16,4,144,30,1237,0.9143647000018973,84,85,8,RL,1,f,26,r,2025-04-16_12h13.50.142,RewSL_RL_EEG,
ping,lowA,midLeft,DOWN,red,r,high,Stimuli\red_bar1.png,Stimuli\red_bar1.png,Stimuli\ping.png,midRight,lowB,downRight,lowC,downLeft,upLeft,upRight,2,rew_low,m,,,,,0,85,85,46,,,0.6,0.7,exp,m,1,-10.14,0,10.14,0,7.16,-7.16,-7.16,-7.16,-7.16,7.16,7.16,7.16,4,214,30,1238,0.6774773999932222,85,86,8,RL,1,f,26,r,2025-04-16_12h13.50.142,RewSL_RL_EEG,
ping,high,midRight,DOWN,green,l,lowA,Stimuli\green_bar1.png,Stimuli\green_bar1.png,Stimuli\ping.png,midLeft,lowB,downRight,lowC,downLeft,upLeft,upRight,2,rew_high,m,,,,,0,86,86,3,,,0.4,0.7,exp,m,1,10.14,0,-10.14,0,7.16,-7.16,-7.16,-7.16,-7.16,7.16,7.16,7.16,4,224,31,1338,1.0148746000049869,86,87,8,RL,1,f,26,r,2025-04-16_12h13.50.142,RewSL_RL_EEG,
ping,lowC,downLeft,UP,red,l,lowA,Stimuli\red_bar1.png,Stimuli\red_bar1.png,Stimuli\ping.png,midLeft,lowB,downRight,high,midRight,upLeft,upRight,2,rew_low,z,,,,,0,87,87,88,,,0.5,0.6,exp,m,0,-7.16,-7.16,-10.14,0,7.16,-7.16,10.14,0,-7.16,7.16,7.16,7.16,4,134,30,1338,0.8647581999975955,87,88,8,RL,1,f,26,r,2025-04-16_12h13.50.142,RewSL_RL_EEG,
ping,lowB,downRight,DOWN,green,r,lowA,Stimuli\green_bar1.png,Stimuli\green_bar1.png,Stimuli\ping.png,midLeft,high,midRight,lowC,downLeft,upLeft,upRight,2,rew_low,m,,,,,0,88,88,71,,,0.4,0.6,exp,m,1,7.16,-7.16,-10.14,0,10.14,0,-7.16,-7.16,-7.16,7.16,7.16,7.16,4,244,30,1339,0.710260499996366,88,89,8,RL,1,f,26,r,2025-04-16_12h13.50.142,RewSL_RL_EEG,
ping,lowC,downLeft,DOWN,green,r,lowA,Stimuli\green_bar1.png,Stimuli\green_bar1.png,Stimuli\ping.png,midLeft,lowB,downRight,high,midRight,upLeft,upRight,2,rew_low,m,,,,,0,89,89,99,,,0.4,0.7,exp,m,1,-7.16,-7.16,-10.14,0,7.16,-7.16,10.14,0,-7.16,7.16,7.16,7.16,4,234,30,1340,0.8188039999949979,89,90,8,RL,1,f,26,r,2025-04-16_12h13.50.142,RewSL_RL_EEG,
ping,lowB,downRight,UP,red,l,lowA,Stimuli\red_bar1.png,Stimuli\red_bar1.png,Stimuli\ping.png,midLeft,high,midRight,lowC,downLeft,upLeft,upRight,2,rew_low,z,,,,,0,90,90,72,,,0.5,0.8,exp,z,1,7.16,-7.16,-10.14,0,10.14,0,-7.16,-7.16,-7.16,7.16,7.16,7.16,4,144,30,1341,0.7815469999914058,90,91,8,RL,1,f,26,r,2025-04-16_12h13.50.142,RewSL_RL_EEG,
ping,lowA,midLeft,UP,red,l,high,Stimuli\red_bar1.png,Stimuli\red_bar1.png,Stimuli\ping.png,midRight,lowB,downRight,lowC,downLeft,upLeft,upRight,2,rew_low,z,,,,,0,91,91,48,,,0.4,0.6,exp,z,1,-10.14,0,10.14,0,7.16,-7.16,-7.16,-7.16,-7.16,7.16,7.16,7.16,4,114,30,1342,0.7692240999895148,91,92,8,RL,1,f,26,r,2025-04-16_12h13.50.142,RewSL_RL_EEG,
ping,high,midRight,UP,red,r,lowA,Stimuli\red_bar1.png,Stimuli\red_bar1.png,Stimuli\ping.png,midLeft,lowB,downRight,lowC,downLeft,upLeft,upRight,2,rew_high,z,,,,,0,92,92,4,,,0.4,0.7,exp,z,1,10.14,0,-10.14,0,7.16,-7.16,-7.16,-7.16,-7.16,7.16,7.16,7.16,4,124,31,1442,0.652252400002908,92,93,8,RL,1,f,26,r,2025-04-16_12h13.50.142,RewSL_RL_EEG,
ping,high,midRight,UP,red,r,lowA,Stimuli\red_bar1.png,Stimuli\red_bar1.png,Stimuli\ping.png,midLeft,lowB,downRight,lowC,downLeft,upLeft,upRight,2,rew_high,z,,,,,0,93,93,20,,,0.5,0.6,exp,z,1,10.14,0,-10.14,0,7.16,-7.16,-7.16,-7.16,-7.16,7.16,7.16,7.16,4,124,31,1542,0.5354535999940708,93,94,8,RL,1,f,26,r,2025-04-16_12h13.50.142,RewSL_RL_EEG,
ping,lowC,downLeft,UP,red,r,lowA,Stimuli\red_bar1.png,Stimuli\red_bar1.png,Stimuli\ping.png,midLeft,lowB,downRight,high,midRight,upLeft,upRight,2,rew_low,z,,,,,0,94,94,84,,,0.6,0.8,exp,z,1,-7.16,-7.16,-10.14,0,7.16,-7.16,10.14,0,-7.16,7.16,7.16,7.16,4,134,30,1543,0.685053399996832,94,95,8,RL,1,f,26,r,2025-04-16_12h13.50.142,RewSL_RL_EEG,
ping,lowB,downRight,DOWN,red,l,lowA,Stimuli\red_bar1.png,Stimuli\red_bar1.png,Stimuli\ping.png,midLeft,high,midRight,lowC,downLeft,upLeft,upRight,2,rew_low,m,,,,,0,95,95,58,,,0.5,0.7,exp,m,1,7.16,-7.16,-10.14,0,10.14,0,-7.16,-7.16,-7.16,7.16,7.16,7.16,4,244,30,1544,0.8225989999918966,95,96,8,RL,1,f,26,r,2025-04-16_12h13.50.142,RewSL_RL_EEG,
ping,lowC,downLeft,DOWN,green,r,lowA,Stimuli\green_bar1.png,Stimuli\green_bar1.png,Stimuli\ping.png,midLeft,lowB,downRight,high,midRight,upLeft,upRight,2,rew_low,m,,,,,0,96,96,87,,,0.5,0.7,exp,z,0,-7.16,-7.16,-10.14,0,7.16,-7.16,10.14,0,-7.16,7.16,7.16,7.16,4,234,30,1544,0.6565501000004588,96,97,8,RL,1,f,26,r,2025-04-16_12h13.50.142,RewSL_RL_EEG,
ping,lowA,midLeft,UP,green,l,high,Stimuli\green_bar1.png,Stimuli\green_bar1.png,Stimuli\ping.png,midRight,lowB,downRight,lowC,downLeft,upLeft,upRight,2,rew_low,z,,,,,0,97,97,41,,,0.6,0.7,exp,z,1,-10.14,0,10.14,0,7.16,-7.16,-7.16,-7.16,-7.16,7.16,7.16,7.16,4,114,30,1545,0.9020679999957792,97,98,8,RL,1,f,26,r,2025-04-16_12h13.50.142,RewSL_RL_EEG,
ping,high,midRight,UP,red,l,lowA,Stimuli\red_bar1.png,Stimuli\red_bar1.png,Stimuli\ping.png,midLeft,lowB,downRight,lowC,downLeft,upLeft,upRight,2,rew_high,z,,,,,0,98,98,0,,,0.5,0.6,exp,z,1,10.14,0,-10.14,0,7.16,-7.16,-7.16,-7.16,-7.16,7.16,7.16,7.16,4,124,31,1645,0.5729288000002271,98,99,8,RL,1,f,26,r,2025-04-16_12h13.50.142,RewSL_RL_EEG,
ping,lowB,downRight,DOWN,green,r,lowA,Stimuli\green_bar1.png,Stimuli\green_bar1.png,Stimuli\ping.png,midLeft,high,midRight,lowC,downLeft,upLeft,upRight,2,rew_low,m,,,,,0,99,99,55,,,0.4,0.7,exp,m,1,7.16,-7.16,-10.14,0,10.14,0,-7.16,-7.16,-7.16,7.16,7.16,7.16,4,244,30,1646,0.8272905999911018,99,100,8,RL,1,f,26,r,2025-04-16_12h13.50.142,RewSL_RL_EEG,
ping,high,downLeft,UP,red,l,lowA,Stimuli\red_bar1.png,Stimuli\red_bar1.png,Stimuli\ping.png,downRight,lowB,midLeft,lowC,midRight,upLeft,upRight,3,rew_high,z,,,,,0,0,0,24,,,0.5,0.8,exp,z,1,-7.16,-7.16,7.16,-7.16,-10.14,0,10.14,0,-7.16,7.16,7.16,7.16,6,136,31,1746,0.7279389000032097,100,101,8,RL,1,f,26,r,2025-04-16_12h13.50.142,RewSL_RL_EEG,
ping,high,downLeft,DOWN,red,r,lowA,Stimuli\red_bar1.png,Stimuli\red_bar1.png,Stimuli\ping.png,downRight,lowB,midLeft,lowC,midRight,upLeft,upRight,3,rew_high,m,,,,,0,1,1,6,,,0.5,0.7,exp,z,0,-7.16,-7.16,7.16,-7.16,-10.14,0,10.14,0,-7.16,7.16,7.16,7.16,6,236,31,1746,0.9117963000026066,101,102,8,RL,1,f,26,r,2025-04-16_12h13.50.142,RewSL_RL_EEG,
ping,lowC,midRight,UP,green,l,lowA,Stimuli\green_bar1.png,Stimuli\green_bar1.png,Stimuli\ping.png,downRight,lowB,midLeft,high,downLeft,upLeft,upRight,3,rew_low,z,,,,,0,2,2,97,,,0.5,0.7,exp,z,1,10.14,0,7.16,-7.16,-10.14,0,-7.16,-7.16,-7.16,7.16,7.16,7.16,6,126,30,1747,0.7647302999976091,102,103,8,RL,1,f,26,r,2025-04-16_12h13.50.142,RewSL_RL_EEG,
ping,lowA,downRight,UP,green,l,high,Stimuli\green_bar1.png,Stimuli\green_bar1.png,Stimuli\ping.png,downLeft,lowB,midLeft,lowC,midRight,upLeft,upRight,3,rew_low,z,,,,,0,3,3,25,,,0.4,0.6,exp,z,1,7.16,-7.16,-7.16,-7.16,-10.14,0,10.14,0,-7.16,7.16,7.16,7.16,6,146,30,1748,0.8597777999966638,103,104,8,RL,1,f,26,r,2025-04-16_12h13.50.142,RewSL_RL_EEG,
ping,lowA,downRight,DOWN,green,r,high,Stimuli\green_bar1.png,Stimuli\green_bar1.png,Stimuli\ping.png,downLeft,lowB,midLeft,lowC,midRight,upLeft,upRight,3,rew_low,m,,,,,0,4,4,39,,,0.5,0.8,exp,m,1,7.16,-7.16,-7.16,-7.16,-10.14,0,10.14,0,-7.16,7.16,7.16,7.16,6,246,30,1749,0.863750299991807,104,105,8,RL,1,f,26,r,2025-04-16_12h13.50.142,RewSL_RL_EEG,
ping,lowB,midLeft,DOWN,green,r,lowA,Stimuli\green_bar1.png,Stimuli\green_bar1.png,Stimuli\ping.png,downRight,high,downLeft,lowC,midRight,upLeft,upRight,3,rew_low,m,,,,,0,5,5,71,,,0.5,0.7,exp,m,1,-10.14,0,7.16,-7.16,-7.16,-7.16,10.14,0,-7.16,7.16,7.16,7.16,6,216,30,1750,0.6471217000071192,105,106,8,RL,1,f,26,r,2025-04-16_12h13.50.142,RewSL_RL_EEG,
ping,lowA,downRight,UP,red,r,high,Stimuli\red_bar1.png,Stimuli\red_bar1.png,Stimuli\ping.png,downLeft,lowB,midLeft,lowC,midRight,upLeft,upRight,3,rew_low,z,,,,,0,6,6,28,,,0.6,0.8,exp,z,1,7.16,-7.16,-7.16,-7.16,-10.14,0,10.14,0,-7.16,7.16,7.16,7.16,6,146,30,1751,0.5686053999961587,106,107,8,RL,1,f,26,r,2025-04-16_12h13.50.142,RewSL_RL_EEG,
ping,lowB,midLeft,DOWN,green,r,lowA,Stimuli\green_bar1.png,Stimuli\green_bar1.png,Stimuli\ping.png,downRight,high,downLeft,lowC,midRight,upLeft,upRight,3,rew_low,m,,,,,0,7,7,63,,,0.6,0.6,exp,m,1,-10.14,0,7.16,-7.16,-7.16,-7.16,10.14,0,-7.16,7.16,7.16,7.16,6,216,30,1752,0.6825111000071047,107,108,8,RL,1,f,26,r,2025-04-16_12h13.50.142,RewSL_RL_EEG,
ping,lowA,downRight,DOWN,red,r,high,Stimuli\red_bar1.png,Stimuli\red_bar1.png,Stimuli\ping.png,downLeft,lowB,midLeft,lowC,midRight,upLeft,upRight,3,rew_low,m,,,,,0,8,8,30,,,0.6,0.8,exp,m,1,7.16,-7.16,-7.16,-7.16,-10.14,0,10.14,0,-7.16,7.16,7.16,7.16,6,246,30,1753,0.943662999998196,108,109,8,RL,1,f,26,r,2025-04-16_12h13.50.142,RewSL_RL_EEG,
ping,lowA,downRight,DOWN,red,l,high,Stimuli\red_bar1.png,Stimuli\red_bar1.png,Stimuli\ping.png,downLeft,lowB,midLeft,lowC,midRight,upLeft,upRight,3,rew_low,m,,,,,0,9,9,42,,,0.5,0.7,exp,z,0,7.16,-7.16,-7.16,-7.16,-10.14,0,10.14,0,-7.16,7.16,7.16,7.16,6,246,30,1753,0.6058923000091454,109,110,8,RL,1,f,26,r,2025-04-16_12h13.50.142,RewSL_RL_EEG,
ping,high,downLeft,UP,green,l,lowA,Stimuli\green_bar1.png,Stimuli\green_bar1.png,Stimuli\ping.png,downRight,lowB,midLeft,lowC,midRight,upLeft,upRight,3,rew_high,z,,,,,0,10,10,17,,,0.5,0.7,exp,z,1,-7.16,-7.16,7.16,-7.16,-10.14,0,10.14,0,-7.16,7.16,7.16,7.16,6,136,31,1853,0.6141528000007384,110,111,8,RL,1,f,26,r,2025-04-16_12h13.50.142,RewSL_RL_EEG,
ping,lowC,midRight,UP,green,r,lowA,Stimuli\green_bar1.png,Stimuli\green_bar1.png,Stimuli\ping.png,downRight,lowB,midLeft,high,downLeft,upLeft,upRight,3,rew_low,z,,,,,0,11,11,77,,,0.5,0.7,exp,z,1,10.14,0,7.16,-7.16,-10.14,0,-7.16,-7.16,-7.16,7.16,7.16,7.16,6,126,30,1854,0.6682693000038853,111,112,8,RL,1,f,26,r,2025-04-16_12h13.50.142,RewSL_RL_EEG,
ping,lowB,midLeft,UP,red,l,lowA,Stimuli\red_bar1.png,Stimuli\red_bar1.png,Stimuli\ping.png,downRight,high,downLeft,lowC,midRight,upLeft,upRight,3,rew_low,z,,,,,0,12,12,56,,,0.5,0.8,exp,z,1,-10.14,0,7.16,-7.16,-7.16,-7.16,10.14,0,-7.16,7.16,7.16,7.16,6,116,30,1855,0.47702800000843126,112,113,8,RL,1,f,26,r,2025-04-16_12h13.50.142,RewSL_RL_EEG,
ping,high,downLeft,UP,green,r,lowA,Stimuli\green_bar1.png,Stimuli\green_bar1.png,Stimuli\ping.png,downRight,lowB,midLeft,lowC,midRight,upLeft,upRight,3,rew_high,z,,,,,0,13,13,21,,,0.5,0.7,exp,z,1,-7.16,-7.16,7.16,-7.16,-10.14,0,10.14,0,-7.16,7.16,7.16,7.16,6,136,31,1955,0.8061448000080418,113,114,8,RL,1,f,26,r,2025-04-16_12h13.50.142,RewSL_RL_EEG,
ping,high,downLeft,UP,red,r,lowA,Stimuli\red_bar1.png,Stimuli\red_bar1.png,Stimuli\ping.png,downRight,lowB,midLeft,lowC,midRight,upLeft,upRight,3,rew_high,z,,,,,0,14,14,4,,,0.5,0.7,exp,z,1,-7.16,-7.16,7.16,-7.16,-10.14,0,10.14,0,-7.16,7.16,7.16,7.16,6,136,31,2055,0.7194487000087975,114,115,8,RL,1,f,26,r,2025-04-16_12h13.50.142,RewSL_RL_EEG,
ping,lowB,midLeft,DOWN,green,l,lowA,Stimuli\green_bar1.png,Stimuli\green_bar1.png,Stimuli\ping.png,downRight,high,downLeft,lowC,midRight,upLeft,upRight,3,rew_low,m,,,,,0,15,15,67,,,0.5,0.6,exp,m,1,-10.14,0,7.16,-7.16,-7.16,-7.16,10.14,0,-7.16,7.16,7.16,7.16,6,216,30,2056,0.7014542999968398,115,116,8,RL,1,f,26,r,2025-04-16_12h13.50.142,RewSL_RL_EEG,
ping,lowB,midLeft,DOWN,red,r,lowA,Stimuli\red_bar1.png,Stimuli\red_bar1.png,Stimuli\ping.png,downRight,high,downLeft,lowC,midRight,upLeft,upRight,3,rew_low,m,,,,,0,16,16,70,,,0.5,0.8,exp,m,1,-10.14,0,7.16,-7.16,-7.16,-7.16,10.14,0,-7.16,7.16,7.16,7.16,6,216,30,2057,0.5613924999925075,116,117,8,RL,1,f,26,r,2025-04-16_12h13.50.142,RewSL_RL_EEG,
ping,high,downLeft,UP,green,l,lowA,Stimuli\green_bar1.png,Stimuli\green_bar1.png,Stimuli\ping.png,downRight,lowB,midLeft,lowC,midRight,upLeft,upRight,3,rew_high,z,,,,,0,17,17,1,,,0.4,0.8,exp,m,0,-7.16,-7.16,7.16,-7.16,-10.14,0,10.14,0,-7.16,7.16,7.16,7.16,6,136,31,2057,0.7240066999947885,117,118,8,RL,1,f,26,r,2025-04-16_12h13.50.142,RewSL_RL_EEG,
ping,lowA,downRight,DOWN,red,r,high,Stimuli\red_bar1.png,Stimuli\red_bar1.png,Stimuli\ping.png,downLeft,lowB,midLeft,lowC,midRight,upLeft,upRight,3,rew_low,m,,,,,0,18,18,46,,,0.4,0.7,exp,m,1,7.16,-7.16,-7.16,-7.16,-10.14,0,10.14,0,-7.16,7.16,7.16,7.16,6,246,30,2058,0.7309759999916423,118,119,8,RL,1,f,26,r,2025-04-16_12h13.50.142,RewSL_RL_EEG,
ping,lowC,midRight,UP,green,r,lowA,Stimuli\green_bar1.png,Stimuli\green_bar1.png,Stimuli\ping.png,downRight,lowB,midLeft,high,downLeft,upLeft,upRight,3,rew_low,z,,,,,0,19,19,85,,,0.4,0.7,exp,z,1,10.14,0,7.16,-7.16,-10.14,0,-7.16,-7.16,-7.16,7.16,7.16,7.16,6,126,30,2059,0.6482959000131814,119,120,8,RL,1,f,26,r,2025-04-16_12h13.50.142,RewSL_RL_EEG,
ping,lowC,midRight,UP,red,l,lowA,Stimuli\red_bar1.png,Stimuli\red_bar1.png,Stimuli\ping.png,downRight,lowB,midLeft,high,downLeft,upLeft,upRight,3,rew_low,z,,,,,0,20,20,80,,,0.6,0.7,exp,z,1,10.14,0,7.16,-7.16,-10.14,0,-7.16,-7.16,-7.16,7.16,7.16,7.16,6,126,30,2060,0.5768255000002682,120,121,8,RL,1,f,26,r,2025-04-16_12h13.50.142,RewSL_RL_EEG,
ping,lowB,midLeft,DOWN,green,l,lowA,Stimuli\green_bar1.png,Stimuli\green_bar1.png,Stimuli\ping.png,downRight,high,downLeft,lowC,midRight,upLeft,upRight,3,rew_low,m,,,,,0,21,21,51,,,0.5,0.8,exp,m,1,-10.14,0,7.16,-7.16,-7.16,-7.16,10.14,0,-7.16,7.16,7.16,7.16,6,216,30,2061,0.5937916000111727,121,122,8,RL,1,f,26,r,2025-04-16_12h13.50.142,RewSL_RL_EEG,
ping,lowB,midLeft,UP,green,l,lowA,Stimuli\green_bar1.png,Stimuli\green_bar1.png,Stimuli\ping.png,downRight,high,downLeft,lowC,midRight,upLeft,upRight,3,rew_low,z,,,,,0,22,22,57,,,0.4,0.7,exp,z,1,-10.14,0,7.16,-7.16,-7.16,-7.16,10.14,0,-7.16,7.16,7.16,7.16,6,116,30,2062,0.5693981999938842,122,123,8,RL,1,f,26,r,2025-04-16_12h13.50.142,RewSL_RL_EEG,
ping,lowA,downRight,DOWN,red,r,high,Stimuli\red_bar1.png,Stimuli\red_bar1.png,Stimuli\ping.png,downLeft,lowB,midLeft,lowC,midRight,upLeft,upRight,3,rew_low,m,,,,,0,23,23,38,,,0.6,0.7,exp,m,1,7.16,-7.16,-7.16,-7.16,-10.14,0,10.14,0,-7.16,7.16,7.16,7.16,6,246,30,2063,0.852684199999203,123,124,8,RL,1,f,26,r,2025-04-16_12h13.50.142,RewSL_RL_EEG,
ping,lowB,midLeft,UP,green,l,lowA,Stimuli\green_bar1.png,Stimuli\green_bar1.png,Stimuli\ping.png,downRight,high,downLeft,lowC,midRight,upLeft,upRight,3,rew_low,z,,,,,0,24,24,73,,,0.5,0.8,exp,z,1,-10.14,0,7.16,-7.16,-7.16,-7.16,10.14,0,-7.16,7.16,7.16,7.16,6,116,30,2064,0.6358072000002721,124,125,8,RL,1,f,26,r,2025-04-16_12h13.50.142,RewSL_RL_EEG,
ping,lowA,downRight,UP,red,l,high,Stimuli\red_bar1.png,Stimuli\red_bar1.png,Stimuli\ping.png,downLeft,lowB,midLeft,lowC,midRight,upLeft,upRight,3,rew_low,z,,,,,0,25,25,48,,,0.5,0.7,exp,z,1,7.16,-7.16,-7.16,-7.16,-10.14,0,10.14,0,-7.16,7.16,7.16,7.16,6,146,30,2065,0.6762844000040786,125,126,8,RL,1,f,26,r,2025-04-16_12h13.50.142,RewSL_RL_EEG,
ping,lowC,midRight,DOWN,green,l,lowA,Stimuli\green_bar1.png,Stimuli\green_bar1.png,Stimuli\ping.png,downRight,lowB,midLeft,high,downLeft,upLeft,upRight,3,rew_low,m,,,,,0,26,26,75,,,0.4,0.6,exp,m,1,10.14,0,7.16,-7.16,-10.14,0,-7.16,-7.16,-7.16,7.16,7.16,7.16,6,226,30,2066,0.5937695000029635,126,127,8,RL,1,f,26,r,2025-04-16_12h13.50.142,RewSL_RL_EEG,
ping,high,downLeft,DOWN,red,l,lowA,Stimuli\red_bar1.png,Stimuli\red_bar1.png,Stimuli\ping.png,downRight,lowB,midLeft,lowC,midRight,upLeft,upRight,3,rew_high,m,,,,,0,27,27,10,,,0.5,0.8,exp,m,1,-7.16,-7.16,7.16,-7.16,-10.14,0,10.14,0,-7.16,7.16,7.16,7.16,6,236,31,2166,0.6976930999953765,127,128,8,RL,1,f,26,r,2025-04-16_12h13.50.142,RewSL_RL_EEG,
ping,lowB,midLeft,DOWN,red,r,lowA,Stimuli\red_bar1.png,Stimuli\red_bar1.png,Stimuli\ping.png,downRight,high,downLeft,lowC,midRight,upLeft,upRight,3,rew_low,m,,,,,0,28,28,54,,,0.5,0.6,exp,m,1,-10.14,0,7.16,-7.16,-7.16,-7.16,10.14,0,-7.16,7.16,7.16,7.16,6,216,30,2167,0.6815689000068232,128,129,8,RL,1,f,26,r,2025-04-16_12h13.50.142,RewSL_RL_EEG,
ping,lowA,downRight,UP,red,r,high,Stimuli\red_bar1.png,Stimuli\red_bar1.png,Stimuli\ping.png,downLeft,lowB,midLeft,lowC,midRight,upLeft,upRight,3,rew_low,z,,,,,0,29,29,36,,,0.6,0.6,exp,z,1,7.16,-7.16,-7.16,-7.16,-10.14,0,10.14,0,-7.16,7.16,7.16,7.16,6,146,30,2168,0.7562897000025259,129,130,8,RL,1,f,26,r,2025-04-16_12h13.50.142,RewSL_RL_EEG,
ping,lowB,midLeft,UP,green,r,lowA,Stimuli\green_bar1.png,Stimuli\green_bar1.png,Stimuli\ping.png,downRight,high,downLeft,lowC,midRight,upLeft,upRight,3,rew_low,z,,,,,0,30,30,61,,,0.5,0.6,exp,z,1,-10.14,0,7.16,-7.16,-7.16,-7.16,10.14,0,-7.16,7.16,7.16,7.16,6,116,30,2169,0.6104888999980176,130,131,8,RL,1,f,26,r,2025-04-16_12h13.50.142,RewSL_RL_EEG,
ping,lowC,midRight,UP,red,l,lowA,Stimuli\red_bar1.png,Stimuli\red_bar1.png,Stimuli\ping.png,downRight,lowB,midLeft,high,downLeft,upLeft,upRight,3,rew_low,z,,,,,0,31,31,96,,,0.4,0.7,exp,z,1,10.14,0,7.16,-7.16,-10.14,0,-7.16,-7.16,-7.16,7.16,7.16,7.16,6,126,30,2170,0.4481617000128608,131,132,8,RL,1,f,26,r,2025-04-16_12h13.50.142,RewSL_RL_EEG,
ping,lowB,midLeft,UP,red,r,lowA,Stimuli\red_bar1.png,Stimuli\red_bar1.png,Stimuli\ping.png,downRight,high,downLeft,lowC,midRight,upLeft,upRight,3,rew_low,z,,,,,0,32,32,52,,,0.4,0.8,exp,z,1,-10.14,0,7.16,-7.16,-7.16,-7.16,10.14,0,-7.16,7.16,7.16,7.16,6,116,30,2171,0.41061200000694953,132,133,8,RL,1,f,26,r,2025-04-16_12h13.50.142,RewSL_RL_EEG,
ping,lowB,midLeft,DOWN,red,l,lowA,Stimuli\red_bar1.png,Stimuli\red_bar1.png,Stimuli\ping.png,downRight,high,downLeft,lowC,midRight,upLeft,upRight,3,rew_low,m,,,,,0,33,33,74,,,0.5,0.7,exp,m,1,-10.14,0,7.16,-7.16,-7.16,-7.16,10.14,0,-7.16,7.16,7.16,7.16,6,216,30,2172,0.5137337999913143,133,134,8,RL,1,f,26,r,2025-04-16_12h13.50.142,RewSL_RL_EEG,
ping,lowA,downRight,DOWN,green,r,high,Stimuli\green_bar1.png,Stimuli\green_bar1.png,Stimuli\ping.png,downLeft,lowB,midLeft,lowC,midRight,upLeft,upRight,3,rew_low,m,,,,,0,34,34,47,,,0.4,0.7,exp,z,0,7.16,-7.16,-7.16,-7.16,-10.14,0,10.14,0,-7.16,7.16,7.16,7.16,6,246,30,2172,0.5275825999997323,134,135,8,RL,1,f,26,r,2025-04-16_12h13.50.142,RewSL_RL_EEG,
ping,high,downLeft,DOWN,red,l,lowA,Stimuli\red_bar1.png,Stimuli\red_bar1.png,Stimuli\ping.png,downRight,lowB,midLeft,lowC,midRight,upLeft,upRight,3,rew_high,m,,,,,0,35,35,2,,,0.5,0.7,exp,z,0,-7.16,-7.16,7.16,-7.16,-10.14,0,10.14,0,-7.16,7.16,7.16,7.16,6,236,31,2172,0.756340399995679,135,136,8,RL,1,f,26,r,2025-04-16_12h13.50.142,RewSL_RL_EEG,
ping,lowC,midRight,DOWN,red,r,lowA,Stimuli\red_bar1.png,Stimuli\red_bar1.png,Stimuli\ping.png,downRight,lowB,midLeft,high,downLeft,upLeft,upRight,3,rew_low,m,,,,,0,36,36,86,,,0.6,0.8,exp,m,1,10.14,0,7.16,-7.16,-10.14,0,-7.16,-7.16,-7.16,7.16,7.16,7.16,6,226,30,2173,0.4856134000001475,136,137,8,RL,1,f,26,r,2025-04-16_12h13.50.142,RewSL_RL_EEG,
ping,high,downLeft,DOWN,red,r,lowA,Stimuli\red_bar1.png,Stimuli\red_bar1.png,Stimuli\ping.png,downRight,lowB,midLeft,lowC,midRight,upLeft,upRight,3,rew_high,m,,,,,0,37,37,22,,,0.4,0.7,exp,z,0,-7.16,-7.16,7.16,-7.16,-10.14,0,10.14,0,-7.16,7.16,7.16,7.16,6,236,31,2173,0.6773335999896517,137,138,8,RL,1,f,26,r,2025-04-16_12h13.50.142,RewSL_RL_EEG,
ping,lowA,downRight,DOWN,green,r,high,Stimuli\green_bar1.png,Stimuli\green_bar1.png,Stimuli\ping.png,downLeft,lowB,midLeft,lowC,midRight,upLeft,upRight,3,rew_low,m,,,,,0,38,38,31,,,0.5,0.6,exp,m,1,7.16,-7.16,-7.16,-7.16,-10.14,0,10.14,0,-7.16,7.16,7.16,7.16,6,246,30,2174,0.6893581999902381,138,139,8,RL,1,f,26,r,2025-04-16_12h13.50.142,RewSL_RL_EEG,
ping,lowB,midLeft,DOWN,red,r,lowA,Stimuli\red_bar1.png,Stimuli\red_bar1.png,Stimuli\ping.png,downRight,high,downLeft,lowC,midRight,upLeft,upRight,3,rew_low,m,,,,,0,39,39,62,,,0.5,0.7,exp,m,1,-10.14,0,7.16,-7.16,-7.16,-7.16,10.14,0,-7.16,7.16,7.16,7.16,6,216,30,2175,0.6654871000064304,139,140,8,RL,1,f,26,r,2025-04-16_12h13.50.142,RewSL_RL_EEG,
ping,lowB,midLeft,UP,green,r,lowA,Stimuli\green_bar1.png,Stimuli\green_bar1.png,Stimuli\ping.png,downRight,high,downLeft,lowC,midRight,upLeft,upRight,3,rew_low,z,,,,,0,40,40,53,,,0.6,0.7,exp,z,1,-10.14,0,7.16,-7.16,-7.16,-7.16,10.14,0,-7.16,7.16,7.16,7.16,6,116,30,2176,0.5898678000085056,140,141,8,RL,1,f,26,r,2025-04-16_12h13.50.142,RewSL_RL_EEG,
ping,high,downLeft,UP,red,l,lowA,Stimuli\red_bar1.png,Stimuli\red_bar1.png,Stimuli\ping.png,downRight,lowB,midLeft,lowC,midRight,upLeft,upRight,3,rew_high,z,,,,,0,41,41,16,,,0.5,0.6,exp,m,0,-7.16,-7.16,7.16,-7.16,-10.14,0,10.14,0,-7.16,7.16,7.16,7.16,6,136,31,2176,0.8474234000022989,141,142,8,RL,1,f,26,r,2025-04-16_12h13.50.142,RewSL_RL_EEG,
ping,high,downLeft,UP,red,r,lowA,Stimuli\red_bar1.png,Stimuli\red_bar1.png,Stimuli\ping.png,downRight,lowB,midLeft,lowC,midRight,upLeft,upRight,3,rew_high,z,,,,,0,42,42,20,,,0.6,0.7,exp,z,1,-7.16,-7.16,7.16,-7.16,-10.14,0,10.14,0,-7.16,7.16,7.16,7.16,6,136,31,2276,0.532052599999588,142,143,8,RL,1,f,26,r,2025-04-16_12h13.50.142,RewSL_RL_EEG,
ping,lowC,midRight,UP,red,r,lowA,Stimuli\red_bar1.png,Stimuli\red_bar1.png,Stimuli\ping.png,downRight,lowB,midLeft,high,downLeft,upLeft,upRight,3,rew_low,z,,,,,0,43,43,92,,,0.5,0.7,exp,z,1,10.14,0,7.16,-7.16,-10.14,0,-7.16,-7.16,-7.16,7.16,7.16,7.16,6,126,30,2277,0.5730654000071809,143,144,8,RL,1,f,26,r,2025-04-16_12h13.50.142,RewSL_RL_EEG,
ping,lowB,midLeft,UP,red,r,lowA,Stimuli\red_bar1.png,Stimuli\red_bar1.png,Stimuli\ping.png,downRight,high,downLeft,lowC,midRight,upLeft,upRight,3,rew_low,z,,,,,0,44,44,60,,,0.5,0.8,exp,z,1,-10.14,0,7.16,-7.16,-7.16,-7.16,10.14,0,-7.16,7.16,7.16,7.16,6,116,30,2278,0.37721430000965483,144,145,8,RL,1,f,26,r,2025-04-16_12h13.50.142,RewSL_RL_EEG,
ping,high,downLeft,UP,green,l,lowA,Stimuli\green_bar1.png,Stimuli\green_bar1.png,Stimuli\ping.png,downRight,lowB,midLeft,lowC,midRight,upLeft,upRight,3,rew_high,z,,,,,0,45,45,9,,,0.4,0.8,exp,m,0,-7.16,-7.16,7.16,-7.16,-10.14,0,10.14,0,-7.16,7.16,7.16,7.16,6,136,31,2278,0.5144629000133136,145,146,8,RL,1,f,26,r,2025-04-16_12h13.50.142,RewSL_RL_EEG,
ping,lowC,midRight,DOWN,green,r,lowA,Stimuli\green_bar1.png,Stimuli\green_bar1.png,Stimuli\ping.png,downRight,lowB,midLeft,high,downLeft,upLeft,upRight,3,rew_low,m,,,,,0,46,46,79,,,0.4,0.7,exp,m,1,10.14,0,7.16,-7.16,-10.14,0,-7.16,-7.16,-7.16,7.16,7.16,7.16,6,226,30,2279,0.514688399998704,146,147,8,RL,1,f,26,r,2025-04-16_12h13.50.142,RewSL_RL_EEG,
ping,lowC,midRight,DOWN,red,r,lowA,Stimuli\red_bar1.png,Stimuli\red_bar1.png,Stimuli\ping.png,downRight,lowB,midLeft,high,downLeft,upLeft,upRight,3,rew_low,m,,,,,0,47,47,98,,,0.6,0.6,exp,m,1,10.14,0,7.16,-7.16,-10.14,0,-7.16,-7.16,-7.16,7.16,7.16,7.16,6,226,30,2280,0.4734911999985343,147,148,8,RL,1,f,26,r,2025-04-16_12h13.50.142,RewSL_RL_EEG,
ping,lowC,midRight,DOWN,red,l,lowA,Stimuli\red_bar1.png,Stimuli\red_bar1.png,Stimuli\ping.png,downRight,lowB,midLeft,high,downLeft,upLeft,upRight,3,rew_low,m,,,,,0,48,48,82,,,0.6,0.7,exp,z,0,10.14,0,7.16,-7.16,-10.14,0,-7.16,-7.16,-7.16,7.16,7.16,7.16,6,226,30,2280,0.40192519999982323,148,149,8,RL,1,f,26,r,2025-04-16_12h13.50.142,RewSL_RL_EEG,
ping,high,downLeft,UP,green,r,lowA,Stimuli\green_bar1.png,Stimuli\green_bar1.png,Stimuli\ping.png,downRight,lowB,midLeft,lowC,midRight,upLeft,upRight,3,rew_high,z,,,,,0,49,49,5,,,0.5,0.6,exp,m,0,-7.16,-7.16,7.16,-7.16,-10.14,0,10.14,0,-7.16,7.16,7.16,7.16,6,136,31,2280,0.6393569999927422,149,150,8,RL,1,f,26,r,2025-04-16_12h13.50.142,RewSL_RL_EEG,
ping,lowC,midRight,DOWN,red,r,lowA,Stimuli\red_bar1.png,Stimuli\red_bar1.png,Stimuli\ping.png,downRight,lowB,midLeft,high,downLeft,upLeft,upRight,3,rew_low,m,,,,,0,50,50,94,,,0.4,0.7,exp,m,1,10.14,0,7.16,-7.16,-10.14,0,-7.16,-7.16,-7.16,7.16,7.16,7.16,6,226,30,2281,0.4395937000081176,150,151,8,RL,1,f,26,r,2025-04-16_12h13.50.142,RewSL_RL_EEG,
ping,lowB,midLeft,UP,green,r,lowA,Stimuli\green_bar1.png,Stimuli\green_bar1.png,Stimuli\ping.png,downRight,high,downLeft,lowC,midRight,upLeft,upRight,3,rew_low,z,,,,,0,51,51,69,,,0.5,0.7,exp,z,1,-10.14,0,7.16,-7.16,-7.16,-7.16,10.14,0,-7.16,7.16,7.16,7.16,6,116,30,2282,0.3394609999959357,151,152,8,RL,1,f,26,r,2025-04-16_12h13.50.142,RewSL_RL_EEG,
ping,lowC,midRight,DOWN,green,r,lowA,Stimuli\green_bar1.png,Stimuli\green_bar1.png,Stimuli\ping.png,downRight,lowB,midLeft,high,downLeft,upLeft,upRight,3,rew_low,m,,,,,0,52,52,95,,,0.4,0.6,exp,m,1,10.14,0,7.16,-7.16,-10.14,0,-7.16,-7.16,-7.16,7.16,7.16,7.16,6,226,30,2283,0.5653349999920465,152,153,8,RL,1,f,26,r,2025-04-16_12h13.50.142,RewSL_RL_EEG,
ping,lowA,downRight,UP,green,l,high,Stimuli\green_bar1.png,Stimuli\green_bar1.png,Stimuli\ping.png,downLeft,lowB,midLeft,lowC,midRight,upLeft,upRight,3,rew_low,z,,,,,0,53,53,33,,,0.6,0.6,exp,z,1,7.16,-7.16,-7.16,-7.16,-10.14,0,10.14,0,-7.16,7.16,7.16,7.16,6,146,30,2284,0.43085650001012255,153,154,8,RL,1,f,26,r,2025-04-16_12h13.50.142,RewSL_RL_EEG,
ping,lowA,downRight,UP,green,l,high,Stimuli\green_bar1.png,Stimuli\green_bar1.png,Stimuli\ping.png,downLeft,lowB,midLeft,lowC,midRight,upLeft,upRight,3,rew_low,z,,,,,0,54,54,49,,,0.6,0.7,exp,z,1,7.16,-7.16,-7.16,-7.16,-10.14,0,10.14,0,-7.16,7.16,7.16,7.16,6,146,30,2285,0.5065933000005316,154,155,8,RL,1,f,26,r,2025-04-16_12h13.50.142,RewSL_RL_EEG,
ping,lowC,midRight,DOWN,green,r,lowA,Stimuli\green_bar1.png,Stimuli\green_bar1.png,Stimuli\ping.png,downRight,lowB,midLeft,high,downLeft,upLeft,upRight,3,rew_low,m,,,,,0,55,55,87,,,0.6,0.6,exp,z,0,10.14,0,7.16,-7.16,-10.14,0,-7.16,-7.16,-7.16,7.16,7.16,7.16,6,226,30,2285,0.4818210999947041,155,156,8,RL,1,f,26,r,2025-04-16_12h13.50.142,RewSL_RL_EEG,
ping,lowC,midRight,UP,green,r,lowA,Stimuli\green_bar1.png,Stimuli\green_bar1.png,Stimuli\ping.png,downRight,lowB,midLeft,high,downLeft,upLeft,upRight,3,rew_low,z,,,,,0,56,56,93,,,0.5,0.7,exp,z,1,10.14,0,7.16,-7.16,-10.14,0,-7.16,-7.16,-7.16,7.16,7.16,7.16,6,126,30,2286,0.46116190000611823,156,157,8,RL,1,f,26,r,2025-04-16_12h13.50.142,RewSL_RL_EEG,
ping,lowC,midRight,DOWN,red,l,lowA,Stimuli\red_bar1.png,Stimuli\red_bar1.png,Stimuli\ping.png,downRight,lowB,midLeft,high,downLeft,upLeft,upRight,3,rew_low,m,,,,,0,57,57,90,,,0.6,0.8,exp,m,1,10.14,0,7.16,-7.16,-10.14,0,-7.16,-7.16,-7.16,7.16,7.16,7.16,6,226,30,2287,0.47678730000916403,157,158,8,RL,1,f,26,r,2025-04-16_12h13.50.142,RewSL_RL_EEG,
ping,high,downLeft,UP,red,l,lowA,Stimuli\red_bar1.png,Stimuli\red_bar1.png,Stimuli\ping.png,downRight,lowB,midLeft,lowC,midRight,upLeft,upRight,3,rew_high,z,,,,,0,58,58,8,,,0.4,0.8,exp,z,1,-7.16,-7.16,7.16,-7.16,-10.14,0,10.14,0,-7.16,7.16,7.16,7.16,6,136,31,2387,0.3772433000121964,158,159,8,RL,1,f,26,r,2025-04-16_12h13.50.142,RewSL_RL_EEG,
ping,lowA,downRight,UP,red,l,high,Stimuli\red_bar1.png,Stimuli\red_bar1.png,Stimuli\ping.png,downLeft,lowB,midLeft,lowC,midRight,upLeft,upRight,3,rew_low,z,,,,,0,59,59,40,,,0.4,0.6,exp,z,1,7.16,-7.16,-7.16,-7.16,-10.14,0,10.14,0,-7.16,7.16,7.16,7.16,6,146,30,2388,0.4727975999994669,159,160,8,RL,1,f,26,r,2025-04-16_12h13.50.142,RewSL_RL_EEG,
ping,lowC,midRight,UP,green,l,lowA,Stimuli\green_bar1.png,Stimuli\green_bar1.png,Stimuli\ping.png,downRight,lowB,midLeft,high,downLeft,upLeft,upRight,3,rew_low,z,,,,,0,60,60,89,,,0.6,0.7,exp,z,1,10.14,0,7.16,-7.16,-10.14,0,-7.16,-7.16,-7.16,7.16,7.16,7.16,6,126,30,2389,0.4031445000000531,160,161,8,RL,1,f,26,r,2025-04-16_12h13.50.142,RewSL_RL_EEG,
ping,lowB,midLeft,DOWN,red,l,lowA,Stimuli\red_bar1.png,Stimuli\red_bar1.png,Stimuli\ping.png,downRight,high,downLeft,lowC,midRight,upLeft,upRight,3,rew_low,m,,,,,0,61,61,66,,,0.5,0.7,exp,z,0,-10.14,0,7.16,-7.16,-7.16,-7.16,10.14,0,-7.16,7.16,7.16,7.16,6,216,30,2389,0.3898669000045629,161,162,8,RL,1,f,26,r,2025-04-16_12h13.50.142,RewSL_RL_EEG,
ping,lowA,downRight,UP,red,r,high,Stimuli\red_bar1.png,Stimuli\red_bar1.png,Stimuli\ping.png,downLeft,lowB,midLeft,lowC,midRight,upLeft,upRight,3,rew_low,z,,,,,0,62,62,44,,,0.5,0.6,exp,z,1,7.16,-7.16,-7.16,-7.16,-10.14,0,10.14,0,-7.16,7.16,7.16,7.16,6,146,30,2390,0.3698053000116488,162,163,8,RL,1,f,26,r,2025-04-16_12h13.50.142,RewSL_RL_EEG,
ping,lowA,downRight,DOWN,green,l,high,Stimuli\green_bar1.png,Stimuli\green_bar1.png,Stimuli\ping.png,downLeft,lowB,midLeft,lowC,midRight,upLeft,upRight,3,rew_low,m,,,,,0,63,63,43,,,0.5,0.7,exp,z,0,7.16,-7.16,-7.16,-7.16,-10.14,0,10.14,0,-7.16,7.16,7.16,7.16,6,246,30,2390,0.3938161999976728,163,164,8,RL,1,f,26,r,2025-04-16_12h13.50.142,RewSL_RL_EEG,
ping,lowA,downRight,UP,red,l,high,Stimuli\red_bar1.png,Stimuli\red_bar1.png,Stimuli\ping.png,downLeft,lowB,midLeft,lowC,midRight,upLeft,upRight,3,rew_low,z,,,,,0,64,64,32,,,0.6,0.8,exp,m,0,7.16,-7.16,-7.16,-7.16,-10.14,0,10.14,0,-7.16,7.16,7.16,7.16,6,146,30,2390,0.6187479999935022,164,165,8,RL,1,f,26,r,2025-04-16_12h13.50.142,RewSL_RL_EEG,
ping,lowC,midRight,DOWN,green,l,lowA,Stimuli\green_bar1.png,Stimuli\green_bar1.png,Stimuli\ping.png,downRight,lowB,midLeft,high,downLeft,upLeft,upRight,3,rew_low,m,,,,,0,65,65,91,,,0.6,0.7,exp,z,0,10.14,0,7.16,-7.16,-10.14,0,-7.16,-7.16,-7.16,7.16,7.16,7.16,6,226,30,2390,0.5480723999935435,165,166,8,RL,1,f,26,r,2025-04-16_12h13.50.142,RewSL_RL_EEG,
ping,high,downLeft,DOWN,green,r,lowA,Stimuli\green_bar1.png,Stimuli\green_bar1.png,Stimuli\ping.png,downRight,lowB,midLeft,lowC,midRight,upLeft,upRight,3,rew_high,m,,,,,0,66,66,23,,,0.5,0.8,exp,m,1,-7.16,-7.16,7.16,-7.16,-10.14,0,10.14,0,-7.16,7.16,7.16,7.16,6,236,31,2490,1.2146880000072997,166,167,8,RL,1,f,26,r,2025-04-16_12h13.50.142,RewSL_RL_EEG,
ping,lowA,downRight,DOWN,red,l,high,Stimuli\red_bar1.png,Stimuli\red_bar1.png,Stimuli\ping.png,downLeft,lowB,midLeft,lowC,midRight,upLeft,upRight,3,rew_low,m,,,,,0,67,67,34,,,0.6,0.8,exp,m,1,7.16,-7.16,-7.16,-7.16,-10.14,0,10.14,0,-7.16,7.16,7.16,7.16,6,246,30,2491,0.6941809999989346,167,168,8,RL,1,f,26,r,2025-04-16_12h13.50.142,RewSL_RL_EEG,
ping,lowA,downRight,DOWN,green,l,high,Stimuli\green_bar1.png,Stimuli\green_bar1.png,Stimuli\ping.png,downLeft,lowB,midLeft,lowC,midRight,upLeft,upRight,3,rew_low,m,,,,,0,68,68,27,,,0.5,0.8,exp,m,1,7.16,-7.16,-7.16,-7.16,-10.14,0,10.14,0,-7.16,7.16,7.16,7.16,6,246,30,2492,0.8148568000033265,168,169,8,RL,1,f,26,r,2025-04-16_12h13.50.142,RewSL_RL_EEG,
ping,lowA,downRight,DOWN,green,l,high,Stimuli\green_bar1.png,Stimuli\green_bar1.png,Stimuli\ping.png,downLeft,lowB,midLeft,lowC,midRight,upLeft,upRight,3,rew_low,m,,,,,0,69,69,35,,,0.6,0.7,exp,m,1,7.16,-7.16,-7.16,-7.16,-10.14,0,10.14,0,-7.16,7.16,7.16,7.16,6,246,30,2493,0.6944281000032788,169,170,8,RL,1,f,26,r,2025-04-16_12h13.50.142,RewSL_RL_EEG,
ping,lowB,midLeft,UP,red,l,lowA,Stimuli\red_bar1.png,Stimuli\red_bar1.png,Stimuli\ping.png,downRight,high,downLeft,lowC,midRight,upLeft,upRight,3,rew_low,z,,,,,0,70,70,72,,,0.6,0.8,exp,z,1,-10.14,0,7.16,-7.16,-7.16,-7.16,10.14,0,-7.16,7.16,7.16,7.16,6,116,30,2494,0.4651370999927167,170,171,8,RL,1,f,26,r,2025-04-16_12h13.50.142,RewSL_RL_EEG,
ping,lowB,midLeft,DOWN,red,l,lowA,Stimuli\red_bar1.png,Stimuli\red_bar1.png,Stimuli\ping.png,downRight,high,downLeft,lowC,midRight,upLeft,upRight,3,rew_low,m,,,,,0,71,71,58,,,0.4,0.7,exp,z,0,-10.14,0,7.16,-7.16,-7.16,-7.16,10.14,0,-7.16,7.16,7.16,7.16,6,216,30,2494,0.5062390000093728,171,172,8,RL,1,f,26,r,2025-04-16_12h13.50.142,RewSL_RL_EEG,
ping,lowC,midRight,DOWN,red,r,lowA,Stimuli\red_bar1.png,Stimuli\red_bar1.png,Stimuli\ping.png,downRight,lowB,midLeft,high,downLeft,upLeft,upRight,3,rew_low,m,,,,,0,72,72,78,,,0.4,0.6,exp,z,0,10.14,0,7.16,-7.16,-10.14,0,-7.16,-7.16,-7.16,7.16,7.16,7.16,6,226,30,2494,0.5559743000048911,172,173,8,RL,1,f,26,r,2025-04-16_12h13.50.142,RewSL_RL_EEG,
ping,lowC,midRight,UP,red,l,lowA,Stimuli\red_bar1.png,Stimuli\red_bar1.png,Stimuli\ping.png,downRight,lowB,midLeft,high,downLeft,upLeft,upRight,3,rew_low,z,,,,,0,73,73,88,,,0.5,0.8,exp,m,0,10.14,0,7.16,-7.16,-10.14,0,-7.16,-7.16,-7.16,7.16,7.16,7.16,6,126,30,2494,0.4938224000070477,173,174,8,RL,1,f,26,r,2025-04-16_12h13.50.142,RewSL_RL_EEG,
ping,high,downLeft,UP,red,r,lowA,Stimuli\red_bar1.png,Stimuli\red_bar1.png,Stimuli\ping.png,downRight,lowB,midLeft,lowC,midRight,upLeft,upRight,3,rew_high,z,,,,,0,74,74,12,,,0.5,0.8,exp,z,1,-7.16,-7.16,7.16,-7.16,-10.14,0,10.14,0,-7.16,7.16,7.16,7.16,6,136,31,2594,0.45244069999898784,174,175,8,RL,1,f,26,r,2025-04-16_12h13.50.142,RewSL_RL_EEG,
ping,high,downLeft,DOWN,green,r,lowA,Stimuli\green_bar1.png,Stimuli\green_bar1.png,Stimuli\ping.png,downRight,lowB,midLeft,lowC,midRight,upLeft,upRight,3,rew_high,m,,,,,0,75,75,7,,,0.5,0.7,exp,z,0,-7.16,-7.16,7.16,-7.16,-10.14,0,10.14,0,-7.16,7.16,7.16,7.16,6,236,31,2594,0.6814529999974184,175,176,8,RL,1,f,26,r,2025-04-16_12h13.50.142,RewSL_RL_EEG,
ping,high,downLeft,DOWN,red,r,lowA,Stimuli\red_bar1.png,Stimuli\red_bar1.png,Stimuli\ping.png,downRight,lowB,midLeft,lowC,midRight,upLeft,upRight,3,rew_high,m,,,,,0,76,76,14,,,0.4,0.7,exp,z,0,-7.16,-7.16,7.16,-7.16,-10.14,0,10.14,0,-7.16,7.16,7.16,7.16,6,236,31,2594,0.677101200009929,176,177,8,RL,1,f,26,r,2025-04-16_12h13.50.142,RewSL_RL_EEG,
ping,lowB,midLeft,UP,red,r,lowA,Stimuli\red_bar1.png,Stimuli\red_bar1.png,Stimuli\ping.png,downRight,high,downLeft,lowC,midRight,upLeft,upRight,3,rew_low,z,,,,,0,77,77,68,,,0.4,0.7,exp,z,1,-10.14,0,7.16,-7.16,-7.16,-7.16,10.14,0,-7.16,7.16,7.16,7.16,6,116,30,2595,0.4269897000049241,177,178,8,RL,1,f,26,r,2025-04-16_12h13.50.142,RewSL_RL_EEG,
ping,lowC,midRight,UP,green,l,lowA,Stimuli\green_bar1.png,Stimuli\green_bar1.png,Stimuli\ping.png,downRight,lowB,midLeft,high,downLeft,upLeft,upRight,3,rew_low,z,,,,,0,78,78,81,,,0.5,0.7,exp,z,1,10.14,0,7.16,-7.16,-10.14,0,-7.16,-7.16,-7.16,7.16,7.16,7.16,6,126,30,2596,0.7060444999951869,178,179,8,RL,1,f,26,r,2025-04-16_12h13.50.142,RewSL_RL_EEG,
ping,lowC,midRight,DOWN,green,l,lowA,Stimuli\green_bar1.png,Stimuli\green_bar1.png,Stimuli\ping.png,downRight,lowB,midLeft,high,downLeft,upLeft,upRight,3,rew_low,m,,,,,0,79,79,83,,,0.4,0.8,exp,m,1,10.14,0,7.16,-7.16,-10.14,0,-7.16,-7.16,-7.16,7.16,7.16,7.16,6,226,30,2597,0.6351559000031557,179,180,8,RL,1,f,26,r,2025-04-16_12h13.50.142,RewSL_RL_EEG,
ping,lowB,midLeft,DOWN,green,l,lowA,Stimuli\green_bar1.png,Stimuli\green_bar1.png,Stimuli\ping.png,downRight,high,downLeft,lowC,midRight,upLeft,upRight,3,rew_low,m,,,,,0,80,80,59,,,0.4,0.6,exp,m,1,-10.14,0,7.16,-7.16,-7.16,-7.16,10.14,0,-7.16,7.16,7.16,7.16,6,216,30,2598,0.6682424000027822,180,181,8,RL,1,f,26,r,2025-04-16_12h13.50.142,RewSL_RL_EEG,
ping,high,downLeft,DOWN,red,l,lowA,Stimuli\red_bar1.png,Stimuli\red_bar1.png,Stimuli\ping.png,downRight,lowB,midLeft,lowC,midRight,upLeft,upRight,3,rew_high,m,,,,,0,81,81,18,,,0.4,0.6,exp,m,1,-7.16,-7.16,7.16,-7.16,-10.14,0,10.14,0,-7.16,7.16,7.16,7.16,6,236,31,2698,0.764806299994234,181,182,8,RL,1,f,26,r,2025-04-16_12h13.50.142,RewSL_RL_EEG,
ping,high,downLeft,DOWN,green,r,lowA,Stimuli\green_bar1.png,Stimuli\green_bar1.png,Stimuli\ping.png,downRight,lowB,midLeft,lowC,midRight,upLeft,upRight,3,rew_high,m,,,,,0,82,82,15,,,0.6,0.7,exp,z,0,-7.16,-7.16,7.16,-7.16,-10.14,0,10.14,0,-7.16,7.16,7.16,7.16,6,236,31,2698,0.8986525000073016,182,183,8,RL,1,f,26,r,2025-04-16_12h13.50.142,RewSL_RL_EEG,
ping,lowB,midLeft,DOWN,red,l,lowA,Stimuli\red_bar1.png,Stimuli\red_bar1.png,Stimuli\ping.png,downRight,high,downLeft,lowC,midRight,upLeft,upRight,3,rew_low,m,,,,,0,83,83,50,,,0.6,0.7,exp,z,0,-10.14,0,7.16,-7.16,-7.16,-7.16,10.14,0,-7.16,7.16,7.16,7.16,6,216,30,2698,0.7317925999959698,183,184,8,RL,1,f,26,r,2025-04-16_12h13.50.142,RewSL_RL_EEG,
ping,high,downLeft,DOWN,green,l,lowA,Stimuli\green_bar1.png,Stimuli\green_bar1.png,Stimuli\ping.png,downRight,lowB,midLeft,lowC,midRight,upLeft,upRight,3,rew_high,m,,,,,0,84,84,19,,,0.5,0.7,exp,m,1,-7.16,-7.16,7.16,-7.16,-10.14,0,10.14,0,-7.16,7.16,7.16,7.16,6,236,31,2798,0.6934429999964777,184,185,8,RL,1,f,26,r,2025-04-16_12h13.50.142,RewSL_RL_EEG,
ping,lowB,midLeft,UP,red,l,lowA,Stimuli\red_bar1.png,Stimuli\red_bar1.png,Stimuli\ping.png,downRight,high,downLeft,lowC,midRight,upLeft,upRight,3,rew_low,z,,,,,0,85,85,64,,,0.4,0.7,exp,m,0,-10.14,0,7.16,-7.16,-7.16,-7.16,10.14,0,-7.16,7.16,7.16,7.16,6,116,30,2798,0.8354438000096707,185,186,8,RL,1,f,26,r,2025-04-16_12h13.50.142,RewSL_RL_EEG,
ping,lowA,downRight,UP,green,r,high,Stimuli\green_bar1.png,Stimuli\green_bar1.png,Stimuli\ping.png,downLeft,lowB,midLeft,lowC,midRight,upLeft,upRight,3,rew_low,z,,,,,0,86,86,29,,,0.5,0.6,exp,z,1,7.16,-7.16,-7.16,-7.16,-10.14,0,10.14,0,-7.16,7.16,7.16,7.16,6,146,30,2799,0.7686219000024721,186,187,8,RL,1,f,26,r,2025-04-16_12h13.50.142,RewSL_RL_EEG,
ping,lowB,midLeft,UP,green,l,lowA,Stimuli\green_bar1.png,Stimuli\green_bar1.png,Stimuli\ping.png,downRight,high,downLeft,lowC,midRight,upLeft,upRight,3,rew_low,z,,,,,0,87,87,65,,,0.5,0.6,exp,m,0,-10.14,0,7.16,-7.16,-7.16,-7.16,10.14,0,-7.16,7.16,7.16,7.16,6,116,30,2799,0.6430561999877682,187,188,8,RL,1,f,26,r,2025-04-16_12h13.50.142,RewSL_RL_EEG,
ping,high,downLeft,DOWN,green,l,lowA,Stimuli\green_bar1.png,Stimuli\green_bar1.png,Stimuli\ping.png,downRight,lowB,midLeft,lowC,midRight,upLeft,upRight,3,rew_high,m,,,,,0,88,88,3,,,0.5,0.8,exp,z,0,-7.16,-7.16,7.16,-7.16,-10.14,0,10.14,0,-7.16,7.16,7.16,7.16,6,236,31,2799,0.7396331000054488,188,189,8,RL,1,f,26,r,2025-04-16_12h13.50.142,RewSL_RL_EEG,
ping,lowC,midRight,UP,red,r,lowA,Stimuli\red_bar1.png,Stimuli\red_bar1.png,Stimuli\ping.png,downRight,lowB,midLeft,high,downLeft,upLeft,upRight,3,rew_low,z,,,,,0,89,89,84,,,0.5,0.7,exp,z,1,10.14,0,7.16,-7.16,-10.14,0,-7.16,-7.16,-7.16,7.16,7.16,7.16,6,126,30,2800,0.7732039999973495,189,190,8,RL,1,f,26,r,2025-04-16_12h13.50.142,RewSL_RL_EEG,
ping,lowC,midRight,DOWN,green,r,lowA,Stimuli\green_bar1.png,Stimuli\green_bar1.png,Stimuli\ping.png,downRight,lowB,midLeft,high,downLeft,upLeft,upRight,3,rew_low,m,,,,,0,90,90,99,,,0.5,0.7,exp,m,1,10.14,0,7.16,-7.16,-10.14,0,-7.16,-7.16,-7.16,7.16,7.16,7.16,6,226,30,2801,0.5938949000119464,190,191,8,RL,1,f,26,r,2025-04-16_12h13.50.142,RewSL_RL_EEG,
ping,lowA,downRight,UP,green,l,high,Stimuli\green_bar1.png,Stimuli\green_bar1.png,Stimuli\ping.png,downLeft,lowB,midLeft,lowC,midRight,upLeft,upRight,3,rew_low,z,,,,,0,91,91,41,,,0.5,0.8,exp,z,1,7.16,-7.16,-7.16,-7.16,-10.14,0,10.14,0,-7.16,7.16,7.16,7.16,6,146,30,2802,0.6606833999976516,191,192,8,RL,1,f,26,r,2025-04-16_12h13.50.142,RewSL_RL_EEG,
ping,lowA,downRight,DOWN,red,l,high,Stimuli\red_bar1.png,Stimuli\red_bar1.png,Stimuli\ping.png,downLeft,lowB,midLeft,lowC,midRight,upLeft,upRight,3,rew_low,m,,,,,0,92,92,26,,,0.6,0.7,exp,m,1,7.16,-7.16,-7.16,-7.16,-10.14,0,10.14,0,-7.16,7.16,7.16,7.16,6,246,30,2803,0.6604416999907698,192,193,8,RL,1,f,26,r,2025-04-16_12h13.50.142,RewSL_RL_EEG,
ping,lowB,midLeft,DOWN,green,r,lowA,Stimuli\green_bar1.png,Stimuli\green_bar1.png,Stimuli\ping.png,downRight,high,downLeft,lowC,midRight,upLeft,upRight,3,rew_low,m,,,,,0,93,93,55,,,0.6,0.8,exp,m,1,-10.14,0,7.16,-7.16,-7.16,-7.16,10.14,0,-7.16,7.16,7.16,7.16,6,216,30,2804,0.8519262999907369,193,194,8,RL,1,f,26,r,2025-04-16_12h13.50.142,RewSL_RL_EEG,
ping,high,downLeft,UP,red,l,lowA,Stimuli\red_bar1.png,Stimuli\red_bar1.png,Stimuli\ping.png,downRight,lowB,midLeft,lowC,midRight,upLeft,upRight,3,rew_high,z,,,,,0,94,94,0,,,0.6,0.8,exp,z,1,-7.16,-7.16,7.16,-7.16,-10.14,0,10.14,0,-7.16,7.16,7.16,7.16,6,136,31,2904,0.7690737999946577,194,195,8,RL,1,f,26,r,2025-04-16_12h13.50.142,RewSL_RL_EEG,
ping,lowA,downRight,UP,green,r,high,Stimuli\green_bar1.png,Stimuli\green_bar1.png,Stimuli\ping.png,downLeft,lowB,midLeft,lowC,midRight,upLeft,upRight,3,rew_low,z,,,,,0,95,95,37,,,0.6,0.6,exp,m,0,7.16,-7.16,-7.16,-7.16,-10.14,0,10.14,0,-7.16,7.16,7.16,7.16,6,146,30,2904,1.2522004000056768,195,196,8,RL,1,f,26,r,2025-04-16_12h13.50.142,RewSL_RL_EEG,
ping,high,downLeft,DOWN,green,l,lowA,Stimuli\green_bar1.png,Stimuli\green_bar1.png,Stimuli\ping.png,downRight,lowB,midLeft,lowC,midRight,upLeft,upRight,3,rew_high,m,,,,,0,96,96,11,,,0.5,0.6,exp,m,1,-7.16,-7.16,7.16,-7.16,-10.14,0,10.14,0,-7.16,7.16,7.16,7.16,6,236,31,3004,0.663965100000496,196,197,8,RL,1,f,26,r,2025-04-16_12h13.50.142,RewSL_RL_EEG,
ping,lowA,downRight,UP,green,r,high,Stimuli\green_bar1.png,Stimuli\green_bar1.png,Stimuli\ping.png,downLeft,lowB,midLeft,lowC,midRight,upLeft,upRight,3,rew_low,z,,,,,0,97,97,45,,,0.4,0.8,exp,z,1,7.16,-7.16,-7.16,-7.16,-10.14,0,10.14,0,-7.16,7.16,7.16,7.16,6,146,30,3005,0.7180097999953432,197,198,8,RL,1,f,26,r,2025-04-16_12h13.50.142,RewSL_RL_EEG,
ping,lowC,midRight,UP,red,r,lowA,Stimuli\red_bar1.png,Stimuli\red_bar1.png,Stimuli\ping.png,downRight,lowB,midLeft,high,downLeft,upLeft,upRight,3,rew_low,z,,,,,0,98,98,76,,,0.5,0.6,exp,z,1,10.14,0,7.16,-7.16,-10.14,0,-7.16,-7.16,-7.16,7.16,7.16,7.16,6,126,30,3006,0.9333543999964604,198,199,8,RL,1,f,26,r,2025-04-16_12h13.50.142,RewSL_RL_EEG,
ping,high,downLeft,UP,green,r,lowA,Stimuli\green_bar1.png,Stimuli\green_bar1.png,Stimuli\ping.png,downRight,lowB,midLeft,lowC,midRight,upLeft,upRight,3,rew_high,z,,,,,0,99,99,13,,,0.6,0.6,exp,z,1,-7.16,-7.16,7.16,-7.16,-10.14,0,10.14,0,-7.16,7.16,7.16,7.16,6,136,31,3106,0.7482384000031743,199,200,8,RL,1,f,26,r,2025-04-16_12h13.50.142,RewSL_RL_EEG,
ping,high,midLeft,DOWN,red,r,lowA,Stimuli\red_bar1.png,Stimuli\red_bar1.png,Stimuli\ping.png,midRight,lowB,downLeft,lowC,downRight,upLeft,upRight,1,rew_high,m,,,,,0,0,0,6,,,0.6,0.7,exp,m,1,-10.14,0,10.14,0,-7.16,-7.16,7.16,-7.16,-7.16,7.16,7.16,7.16,2,212,31,3206,0.8727829999988899,200,201,8,RL,1,f,26,r,2025-04-16_12h13.50.142,RewSL_RL_EEG,
ping,lowC,downRight,DOWN,green,r,lowA,Stimuli\green_bar1.png,Stimuli\green_bar1.png,Stimuli\ping.png,midRight,lowB,downLeft,high,midLeft,upLeft,upRight,1,rew_low,m,,,,,0,1,1,79,,,0.5,0.7,exp,m,1,7.16,-7.16,10.14,0,-7.16,-7.16,-10.14,0,-7.16,7.16,7.16,7.16,2,242,30,3207,0.6985222999937832,201,202,8,RL,1,f,26,r,2025-04-16_12h13.50.142,RewSL_RL_EEG,
ping,high,midLeft,DOWN,green,l,lowA,Stimuli\green_bar1.png,Stimuli\green_bar1.png,Stimuli\ping.png,midRight,lowB,downLeft,lowC,downRight,upLeft,upRight,1,rew_high,m,,,,,0,2,2,11,,,0.6,0.6,exp,m,1,-10.14,0,10.14,0,-7.16,-7.16,7.16,-7.16,-7.16,7.16,7.16,7.16,2,212,31,3307,0.6149158000043826,202,203,8,RL,1,f,26,r,2025-04-16_12h13.50.142,RewSL_RL_EEG,
ping,lowC,downRight,DOWN,red,l,lowA,Stimuli\red_bar1.png,Stimuli\red_bar1.png,Stimuli\ping.png,midRight,lowB,downLeft,high,midLeft,upLeft,upRight,1,rew_low,m,,,,,0,3,3,82,,,0.6,0.7,exp,m,1,7.16,-7.16,10.14,0,-7.16,-7.16,-10.14,0,-7.16,7.16,7.16,7.16,2,242,30,3308,0.6223659999959636,203,204,8,RL,1,f,26,r,2025-04-16_12h13.50.142,RewSL_RL_EEG,
ping,high,midLeft,UP,green,r,lowA,Stimuli\green_bar1.png,Stimuli\green_bar1.png,Stimuli\ping.png,midRight,lowB,downLeft,lowC,downRight,upLeft,upRight,1,rew_high,z,,,,,0,4,4,13,,,0.5,0.6,exp,z,1,-10.14,0,10.14,0,-7.16,-7.16,7.16,-7.16,-7.16,7.16,7.16,7.16,2,112,31,3408,0.5267677000083495,204,205,8,RL,1,f,26,r,2025-04-16_12h13.50.142,RewSL_RL_EEG,
ping,lowB,downLeft,UP,red,r,lowA,Stimuli\red_bar1.png,Stimuli\red_bar1.png,Stimuli\ping.png,midRight,high,midLeft,lowC,downRight,upLeft,upRight,1,rew_low,z,,,,,0,5,5,68,,,0.4,0.6,exp,z,1,-7.16,-7.16,10.14,0,-10.14,0,7.16,-7.16,-7.16,7.16,7.16,7.16,2,132,30,3409,0.63567430000694,205,206,8,RL,1,f,26,r,2025-04-16_12h13.50.142,RewSL_RL_EEG,
ping,high,midLeft,UP,red,l,lowA,Stimuli\red_bar1.png,Stimuli\red_bar1.png,Stimuli\ping.png,midRight,lowB,downLeft,lowC,downRight,upLeft,upRight,1,rew_high,z,,,,,0,6,6,0,,,0.5,0.7,exp,z,1,-10.14,0,10.14,0,-7.16,-7.16,7.16,-7.16,-7.16,7.16,7.16,7.16,2,112,31,3509,0.7268352000101004,206,207,8,RL,1,f,26,r,2025-04-16_12h13.50.142,RewSL_RL_EEG,
ping,lowA,midRight,DOWN,red,r,high,Stimuli\red_bar1.png,Stimuli\red_bar1.png,Stimuli\ping.png,midLeft,lowB,downLeft,lowC,downRight,upLeft,upRight,1,rew_low,m,,,,,0,7,7,30,,,0.4,0.8,exp,m,1,10.14,0,-10.14,0,-7.16,-7.16,7.16,-7.16,-7.16,7.16,7.16,7.16,2,222,30,3510,0.5436519000068074,207,208,8,RL,1,f,26,r,2025-04-16_12h13.50.142,RewSL_RL_EEG,
ping,lowC,downRight,DOWN,green,r,lowA,Stimuli\green_bar1.png,Stimuli\green_bar1.png,Stimuli\ping.png,midRight,lowB,downLeft,high,midLeft,upLeft,upRight,1,rew_low,m,,,,,0,8,8,99,,,0.6,0.7,exp,z,0,7.16,-7.16,10.14,0,-7.16,-7.16,-10.14,0,-7.16,7.16,7.16,7.16,2,242,30,3510,0.8141503999941051,208,209,8,RL,1,f,26,r,2025-04-16_12h13.50.142,RewSL_RL_EEG,
ping,lowC,downRight,UP,red,l,lowA,Stimuli\red_bar1.png,Stimuli\red_bar1.png,Stimuli\ping.png,midRight,lowB,downLeft,high,midLeft,upLeft,upRight,1,rew_low,z,,,,,0,9,9,80,,,0.5,0.7,exp,z,1,7.16,-7.16,10.14,0,-7.16,-7.16,-10.14,0,-7.16,7.16,7.16,7.16,2,142,30,3511,0.7641642999951728,209,210,8,RL,1,f,26,r,2025-04-16_12h13.50.142,RewSL_RL_EEG,
ping,lowB,downLeft,UP,red,r,lowA,Stimuli\red_bar1.png,Stimuli\red_bar1.png,Stimuli\ping.png,midRight,high,midLeft,lowC,downRight,upLeft,upRight,1,rew_low,z,,,,,0,10,10,60,,,0.6,0.8,exp,m,0,-7.16,-7.16,10.14,0,-10.14,0,7.16,-7.16,-7.16,7.16,7.16,7.16,2,132,30,3511,0.7939572000032058,210,211,8,RL,1,f,26,r,2025-04-16_12h13.50.142,RewSL_RL_EEG,
ping,lowB,downLeft,UP,green,l,lowA,Stimuli\green_bar1.png,Stimuli\green_bar1.png,Stimuli\ping.png,midRight,high,midLeft,lowC,downRight,upLeft,upRight,1,rew_low,z,,,,,0,11,11,57,,,0.5,0.7,exp,z,1,-7.16,-7.16,10.14,0,-10.14,0,7.16,-7.16,-7.16,7.16,7.16,7.16,2,132,30,3512,0.6356011999887414,211,212,8,RL,1,f,26,r,2025-04-16_12h13.50.142,RewSL_RL_EEG,
ping,lowA,midRight,UP,green,r,high,Stimuli\green_bar1.png,Stimuli\green_bar1.png,Stimuli\ping.png,midLeft,lowB,downLeft,lowC,downRight,upLeft,upRight,1,rew_low,z,,,,,0,12,12,29,,,0.6,0.8,exp,z,1,10.14,0,-10.14,0,-7.16,-7.16,7.16,-7.16,-7.16,7.16,7.16,7.16,2,122,30,3513,0.7811312999983784,212,213,8,RL,1,f,26,r,2025-04-16_12h13.50.142,RewSL_RL_EEG,
ping,lowA,midRight,UP,green,r,high,Stimuli\green_bar1.png,Stimuli\green_bar1.png,Stimuli\ping.png,midLeft,lowB,downLeft,lowC,downRight,upLeft,upRight,1,rew_low,z,,,,,0,13,13,37,,,0.4,0.7,exp,z,1,10.14,0,-10.14,0,-7.16,-7.16,7.16,-7.16,-7.16,7.16,7.16,7.16,2,122,30,3514,0.6812799000035739,213,214,8,RL,1,f,26,r,2025-04-16_12h13.50.142,RewSL_RL_EEG,
ping,lowB,downLeft,DOWN,green,r,lowA,Stimuli\green_bar1.png,Stimuli\green_bar1.png,Stimuli\ping.png,midRight,high,midLeft,lowC,downRight,upLeft,upRight,1,rew_low,m,,,,,0,14,14,71,,,0.6,0.7,exp,m,1,-7.16,-7.16,10.14,0,-10.14,0,7.16,-7.16,-7.16,7.16,7.16,7.16,2,232,30,3515,1.0393049999984214,214,215,8,RL,1,f,26,r,2025-04-16_12h13.50.142,RewSL_RL_EEG,
ping,high,midLeft,UP,red,r,lowA,Stimuli\red_bar1.png,Stimuli\red_bar1.png,Stimuli\ping.png,midRight,lowB,downLeft,lowC,downRight,upLeft,upRight,1,rew_high,z,,,,,0,15,15,4,,,0.4,0.6,exp,z,1,-10.14,0,10.14,0,-7.16,-7.16,7.16,-7.16,-7.16,7.16,7.16,7.16,2,112,31,3615,0.6977862999920035,215,216,8,RL,1,f,26,r,2025-04-16_12h13.50.142,RewSL_RL_EEG,
ping,lowC,downRight,UP,red,r,lowA,Stimuli\red_bar1.png,Stimuli\red_bar1.png,Stimuli\ping.png,midRight,lowB,downLeft,high,midLeft,upLeft,upRight,1,rew_low,z,,,,,0,16,16,84,,,0.5,0.8,exp,z,1,7.16,-7.16,10.14,0,-7.16,-7.16,-10.14,0,-7.16,7.16,7.16,7.16,2,142,30,3616,0.7521768000005977,216,217,8,RL,1,f,26,r,2025-04-16_12h13.50.142,RewSL_RL_EEG,
ping,high,midLeft,DOWN,red,l,lowA,Stimuli\red_bar1.png,Stimuli\red_bar1.png,Stimuli\ping.png,midRight,lowB,downLeft,lowC,downRight,upLeft,upRight,1,rew_high,m,,,,,0,17,17,2,,,0.5,0.7,exp,m,1,-10.14,0,10.14,0,-7.16,-7.16,7.16,-7.16,-7.16,7.16,7.16,7.16,2,212,31,3716,0.6436867000011262,217,218,8,RL,1,f,26,r,2025-04-16_12h13.50.142,RewSL_RL_EEG,
ping,lowC,downRight,UP,green,r,lowA,Stimuli\green_bar1.png,Stimuli\green_bar1.png,Stimuli\ping.png,midRight,lowB,downLeft,high,midLeft,upLeft,upRight,1,rew_low,z,,,,,0,18,18,93,,,0.4,0.8,exp,z,1,7.16,-7.16,10.14,0,-7.16,-7.16,-10.14,0,-7.16,7.16,7.16,7.16,2,142,30,3717,0.8811242999945534,218,219,8,RL,1,f,26,r,2025-04-16_12h13.50.142,RewSL_RL_EEG,
ping,high,midLeft,UP,red,l,lowA,Stimuli\red_bar1.png,Stimuli\red_bar1.png,Stimuli\ping.png,midRight,lowB,downLeft,lowC,downRight,upLeft,upRight,1,rew_high,z,,,,,0,19,19,8,,,0.5,0.7,exp,z,1,-10.14,0,10.14,0,-7.16,-7.16,7.16,-7.16,-7.16,7.16,7.16,7.16,2,112,31,3817,0.6605678999912925,219,220,8,RL,1,f,26,r,2025-04-16_12h13.50.142,RewSL_RL_EEG,
ping,high,midLeft,UP,green,l,lowA,Stimuli\green_bar1.png,Stimuli\green_bar1.png,Stimuli\ping.png,midRight,lowB,downLeft,lowC,downRight,upLeft,upRight,1,rew_high,z,,,,,0,20,20,1,,,0.4,0.7,exp,z,1,-10.14,0,10.14,0,-7.16,-7.16,7.16,-7.16,-7.16,7.16,7.16,7.16,2,112,31,3917,0.5472883000038564,220,221,8,RL,1,f,26,r,2025-04-16_12h13.50.142,RewSL_RL_EEG,
ping,lowA,midRight,UP,red,l,high,Stimuli\red_bar1.png,Stimuli\red_bar1.png,Stimuli\ping.png,midLeft,lowB,downLeft,lowC,downRight,upLeft,upRight,1,rew_low,z,,,,,0,21,21,48,,,0.5,0.6,exp,z,1,10.14,0,-10.14,0,-7.16,-7.16,7.16,-7.16,-7.16,7.16,7.16,7.16,2,122,30,3918,0.5729628000117373,221,222,8,RL,1,f,26,r,2025-04-16_12h13.50.142,RewSL_RL_EEG,
ping,high,midLeft,DOWN,green,r,lowA,Stimuli\green_bar1.png,Stimuli\green_bar1.png,Stimuli\ping.png,midRight,lowB,downLeft,lowC,downRight,upLeft,upRight,1,rew_high,m,,,,,0,22,22,15,,,0.6,0.7,exp,m,1,-10.14,0,10.14,0,-7.16,-7.16,7.16,-7.16,-7.16,7.16,7.16,7.16,2,212,31,4018,0.611182499997085,222,223,8,RL,1,f,26,r,2025-04-16_12h13.50.142,RewSL_RL_EEG,
ping,high,midLeft,UP,green,l,lowA,Stimuli\green_bar1.png,Stimuli\green_bar1.png,Stimuli\ping.png,midRight,lowB,downLeft,lowC,downRight,upLeft,upRight,1,rew_high,z,,,,,0,23,23,9,,,0.4,0.7,exp,z,1,-10.14,0,10.14,0,-7.16,-7.16,7.16,-7.16,-7.16,7.16,7.16,7.16,2,112,31,4118,0.6229388999927323,223,224,8,RL,1,f,26,r,2025-04-16_12h13.50.142,RewSL_RL_EEG,
ping,lowB,downLeft,DOWN,red,l,lowA,Stimuli\red_bar1.png,Stimuli\red_bar1.png,Stimuli\ping.png,midRight,high,midLeft,lowC,downRight,upLeft,upRight,1,rew_low,m,,,,,0,24,24,50,,,0.5,0.8,exp,z,0,-7.16,-7.16,10.14,0,-10.14,0,7.16,-7.16,-7.16,7.16,7.16,7.16,2,232,30,4118,0.9932524000032572,224,225,8,RL,1,f,26,r,2025-04-16_12h13.50.142,RewSL_RL_EEG,
ping,lowA,midRight,DOWN,green,r,high,Stimuli\green_bar1.png,Stimuli\green_bar1.png,Stimuli\ping.png,midLeft,lowB,downLeft,lowC,downRight,upLeft,upRight,1,rew_low,m,,,,,0,25,25,47,,,0.4,0.6,exp,m,1,10.14,0,-10.14,0,-7.16,-7.16,7.16,-7.16,-7.16,7.16,7.16,7.16,2,222,30,4119,0.6478354999999283,225,226,8,RL,1,f,26,r,2025-04-16_12h13.50.142,RewSL_RL_EEG,
ping,lowC,downRight,DOWN,green,r,lowA,Stimuli\green_bar1.png,Stimuli\green_bar1.png,Stimuli\ping.png,midRight,lowB,downLeft,high,midLeft,upLeft,upRight,1,rew_low,m,,,,,0,26,26,95,,,0.5,0.7,exp,z,0,7.16,-7.16,10.14,0,-7.16,-7.16,-10.14,0,-7.16,7.16,7.16,7.16,2,242,30,4119,0.7318794000020716,226,227,8,RL,1,f,26,r,2025-04-16_12h13.50.142,RewSL_RL_EEG,
ping,high,midLeft,UP,red,r,lowA,Stimuli\red_bar1.png,Stimuli\red_bar1.png,Stimuli\ping.png,midRight,lowB,downLeft,lowC,downRight,upLeft,upRight,1,rew_high,z,,,,,0,27,27,20,,,0.5,0.7,exp,z,1,-10.14,0,10.14,0,-7.16,-7.16,7.16,-7.16,-7.16,7.16,7.16,7.16,2,112,31,4219,0.5817907999880845,227,228,8,RL,1,f,26,r,2025-04-16_12h13.50.142,RewSL_RL_EEG,
ping,lowA,midRight,UP,green,r,high,Stimuli\green_bar1.png,Stimuli\green_bar1.png,Stimuli\ping.png,midLeft,lowB,downLeft,lowC,downRight,upLeft,upRight,1,rew_low,z,,,,,0,28,28,45,,,0.6,0.8,exp,z,1,10.14,0,-10.14,0,-7.16,-7.16,7.16,-7.16,-7.16,7.16,7.16,7.16,2,122,30,4220,0.6515820000058739,228,229,8,RL,1,f,26,r,2025-04-16_12h13.50.142,RewSL_RL_EEG,
ping,lowC,downRight,UP,green,r,lowA,Stimuli\green_bar1.png,Stimuli\green_bar1.png,Stimuli\ping.png,midRight,lowB,downLeft,high,midLeft,upLeft,upRight,1,rew_low,z,,,,,0,29,29,77,,,0.6,0.6,exp,z,1,7.16,-7.16,10.14,0,-7.16,-7.16,-10.14,0,-7.16,7.16,7.16,7.16,2,142,30,4221,0.7725976000074297,229,230,8,RL,1,f,26,r,2025-04-16_12h13.50.142,RewSL_RL_EEG,
ping,high,midLeft,DOWN,red,l,lowA,Stimuli\red_bar1.png,Stimuli\red_bar1.png,Stimuli\ping.png,midRight,lowB,downLeft,lowC,downRight,upLeft,upRight,1,rew_high,m,,,,,0,30,30,10,,,0.5,0.6,exp,m,1,-10.14,0,10.14,0,-7.16,-7.16,7.16,-7.16,-7.16,7.16,7.16,7.16,2,212,31,4321,0.7060443000082159,230,231,8,RL,1,f,26,r,2025-04-16_12h13.50.142,RewSL_RL_EEG,
ping,lowC,downRight,DOWN,red,r,lowA,Stimuli\red_bar1.png,Stimuli\red_bar1.png,Stimuli\ping.png,midRight,lowB,downLeft,high,midLeft,upLeft,upRight,1,rew_low,m,,,,,0,31,31,98,,,0.4,0.7,exp,m,1,7.16,-7.16,10.14,0,-7.16,-7.16,-10.14,0,-7.16,7.16,7.16,7.16,2,242,30,4322,0.7236715000035474,231,232,8,RL,1,f,26,r,2025-04-16_12h13.50.142,RewSL_RL_EEG,
ping,lowB,downLeft,DOWN,red,r,lowA,Stimuli\red_bar1.png,Stimuli\red_bar1.png,Stimuli\ping.png,midRight,high,midLeft,lowC,downRight,upLeft,upRight,1,rew_low,m,,,,,0,32,32,54,,,0.5,0.6,exp,m,1,-7.16,-7.16,10.14,0,-10.14,0,7.16,-7.16,-7.16,7.16,7.16,7.16,2,232,30,4323,0.7015051000053063,232,233,8,RL,1,f,26,r,2025-04-16_12h13.50.142,RewSL_RL_EEG,
ping,high,midLeft,UP,green,r,lowA,Stimuli\green_bar1.png,Stimuli\green_bar1.png,Stimuli\ping.png,midRight,lowB,downLeft,lowC,downRight,upLeft,upRight,1,rew_high,z,,,,,0,33,33,5,,,0.4,0.8,exp,z,1,-10.14,0,10.14,0,-7.16,-7.16,7.16,-7.16,-7.16,7.16,7.16,7.16,2,112,31,4423,0.5350322000012966,233,234,8,RL,1,f,26,r,2025-04-16_12h13.50.142,RewSL_RL_EEG,
ping,lowA,midRight,UP,red,r,high,Stimuli\red_bar1.png,Stimuli\red_bar1.png,Stimuli\ping.png,midLeft,lowB,downLeft,lowC,downRight,upLeft,upRight,1,rew_low,z,,,,,0,34,34,28,,,0.5,0.7,exp,z,1,10.14,0,-10.14,0,-7.16,-7.16,7.16,-7.16,-7.16,7.16,7.16,7.16,2,122,30,4424,0.5942795000009937,234,235,8,RL,1,f,26,r,2025-04-16_12h13.50.142,RewSL_RL_EEG,
ping,lowB,downLeft,UP,green,l,lowA,Stimuli\green_bar1.png,Stimuli\green_bar1.png,Stimuli\ping.png,midRight,high,midLeft,lowC,downRight,upLeft,upRight,1,rew_low,z,,,,,0,35,35,73,,,0.4,0.7,exp,z,1,-7.16,-7.16,10.14,0,-10.14,0,7.16,-7.16,-7.16,7.16,7.16,7.16,2,132,30,4425,0.7319041000009747,235,236,8,RL,1,f,26,r,2025-04-16_12h13.50.142,RewSL_RL_EEG,
ping,lowA,midRight,DOWN,green,r,high,Stimuli\green_bar1.png,Stimuli\green_bar1.png,Stimuli\ping.png,midLeft,lowB,downLeft,lowC,downRight,upLeft,upRight,1,rew_low,m,,,,,0,36,36,31,,,0.6,0.7,exp,z,0,10.14,0,-10.14,0,-7.16,-7.16,7.16,-7.16,-7.16,7.16,7.16,7.16,2,222,30,4425,0.8979907999892021,236,237,8,RL,1,f,26,r,2025-04-16_12h13.50.142,RewSL_RL_EEG,
ping,lowB,downLeft,DOWN,red,l,lowA,Stimuli\red_bar1.png,Stimuli\red_bar1.png,Stimuli\ping.png,midRight,high,midLeft,lowC,downRight,upLeft,upRight,1,rew_low,m,,,,,0,37,37,74,,,0.5,0.7,exp,m,1,-7.16,-7.16,10.14,0,-10.14,0,7.16,-7.16,-7.16,7.16,7.16,7.16,2,232,30,4426,0.7351036000036402,237,238,8,RL,1,f,26,r,2025-04-16_12h13.50.142,RewSL_RL_EEG,
ping,lowC,downRight,DOWN,green,l,lowA,Stimuli\green_bar1.png,Stimuli\green_bar1.png,Stimuli\ping.png,midRight,lowB,downLeft,high,midLeft,upLeft,upRight,1,rew_low,m,,,,,0,38,38,75,,,0.4,0.7,exp,m,1,7.16,-7.16,10.14,0,-7.16,-7.16,-10.14,0,-7.16,7.16,7.16,7.16,2,242,30,4427,0.6686904000089271,238,239,8,RL,1,f,26,r,2025-04-16_12h13.50.142,RewSL_RL_EEG,
ping,lowA,midRight,DOWN,green,r,high,Stimuli\green_bar1.png,Stimuli\green_bar1.png,Stimuli\ping.png,midLeft,lowB,downLeft,lowC,downRight,upLeft,upRight,1,rew_low,m,,,,,0,39,39,39,,,0.6,0.7,exp,m,1,10.14,0,-10.14,0,-7.16,-7.16,7.16,-7.16,-7.16,7.16,7.16,7.16,2,222,30,4428,0.5848619000025792,239,240,8,RL,1,f,26,r,2025-04-16_12h13.50.142,RewSL_RL_EEG,
ping,lowA,midRight,UP,red,r,high,Stimuli\red_bar1.png,Stimuli\red_bar1.png,Stimuli\ping.png,midLeft,lowB,downLeft,lowC,downRight,upLeft,upRight,1,rew_low,z,,,,,0,40,40,44,,,0.5,0.7,exp,z,1,10.14,0,-10.14,0,-7.16,-7.16,7.16,-7.16,-7.16,7.16,7.16,7.16,2,122,30,4429,0.5143805999978213,240,241,8,RL,1,f,26,r,2025-04-16_12h13.50.142,RewSL_RL_EEG,
ping,lowA,midRight,DOWN,red,l,high,Stimuli\red_bar1.png,Stimuli\red_bar1.png,Stimuli\ping.png,midLeft,lowB,downLeft,lowC,downRight,upLeft,upRight,1,rew_low,m,,,,,0,41,41,42,,,0.6,0.7,exp,m,1,10.14,0,-10.14,0,-7.16,-7.16,7.16,-7.16,-7.16,7.16,7.16,7.16,2,222,30,4430,0.46949339999991935,241,242,8,RL,1,f,26,r,2025-04-16_12h13.50.142,RewSL_RL_EEG,
ping,lowB,downLeft,UP,green,r,lowA,Stimuli\green_bar1.png,Stimuli\green_bar1.png,Stimuli\ping.png,midRight,high,midLeft,lowC,downRight,upLeft,upRight,1,rew_low,z,,,,,0,42,42,53,,,0.5,0.8,exp,m,0,-7.16,-7.16,10.14,0,-10.14,0,7.16,-7.16,-7.16,7.16,7.16,7.16,2,132,30,4430,0.7063175999937812,242,243,8,RL,1,f,26,r,2025-04-16_12h13.50.142,RewSL_RL_EEG,
ping,lowB,downLeft,DOWN,green,r,lowA,Stimuli\green_bar1.png,Stimuli\green_bar1.png,Stimuli\ping.png,midRight,high,midLeft,lowC,downRight,upLeft,upRight,1,rew_low,m,,,,,0,43,43,63,,,0.5,0.7,exp,z,0,-7.16,-7.16,10.14,0,-10.14,0,7.16,-7.16,-7.16,7.16,7.16,7.16,2,232,30,4430,0.7482952999998815,243,244,8,RL,1,f,26,r,2025-04-16_12h13.50.142,RewSL_RL_EEG,
ping,lowA,midRight,DOWN,red,l,high,Stimuli\red_bar1.png,Stimuli\red_bar1.png,Stimuli\ping.png,midLeft,lowB,downLeft,lowC,downRight,upLeft,upRight,1,rew_low,m,,,,,0,44,44,26,,,0.6,0.6,exp,m,1,10.14,0,-10.14,0,-7.16,-7.16,7.16,-7.16,-7.16,7.16,7.16,7.16,2,222,30,4431,0.5684204999997746,244,245,8,RL,1,f,26,r,2025-04-16_12h13.50.142,RewSL_RL_EEG,
ping,lowB,downLeft,DOWN,green,l,lowA,Stimuli\green_bar1.png,Stimuli\green_bar1.png,Stimuli\ping.png,midRight,high,midLeft,lowC,downRight,upLeft,upRight,1,rew_low,m,,,,,0,45,45,51,,,0.4,0.7,exp,m,1,-7.16,-7.16,10.14,0,-10.14,0,7.16,-7.16,-7.16,7.16,7.16,7.16,2,232,30,4432,0.7146056000055978,245,246,8,RL,1,f,26,r,2025-04-16_12h13.50.142,RewSL_RL_EEG,
ping,lowC,downRight,DOWN,green,r,lowA,Stimuli\green_bar1.png,Stimuli\green_bar1.png,Stimuli\ping.png,midRight,lowB,downLeft,high,midLeft,upLeft,upRight,1,rew_low,m,,,,,0,46,46,87,,,0.5,0.7,exp,z,0,7.16,-7.16,10.14,0,-7.16,-7.16,-10.14,0,-7.16,7.16,7.16,7.16,2,242,30,4432,0.8852544000110356,246,247,8,RL,1,f,26,r,2025-04-16_12h13.50.142,RewSL_RL_EEG,
ping,lowC,downRight,UP,red,r,lowA,Stimuli\red_bar1.png,Stimuli\red_bar1.png,Stimuli\ping.png,midRight,lowB,downLeft,high,midLeft,upLeft,upRight,1,rew_low,z,,,,,0,47,47,76,,,0.4,0.7,exp,z,1,7.16,-7.16,10.14,0,-7.16,-7.16,-10.14,0,-7.16,7.16,7.16,7.16,2,142,30,4433,0.7648844999930589,247,248,8,RL,1,f,26,r,2025-04-16_12h13.50.142,RewSL_RL_EEG,
ping,lowA,midRight,UP,red,r,high,Stimuli\red_bar1.png,Stimuli\red_bar1.png,Stimuli\ping.png,midLeft,lowB,downLeft,lowC,downRight,upLeft,upRight,1,rew_low,z,,,,,0,48,48,36,,,0.4,0.6,exp,z,1,10.14,0,-10.14,0,-7.16,-7.16,7.16,-7.16,-7.16,7.16,7.16,7.16,2,122,30,4434,0.5770972999889636,248,249,8,RL,1,f,26,r,2025-04-16_12h13.50.142,RewSL_RL_EEG,
ping,lowC,downRight,DOWN,red,r,lowA,Stimuli\red_bar1.png,Stimuli\red_bar1.png,Stimuli\ping.png,midRight,lowB,downLeft,high,midLeft,upLeft,upRight,1,rew_low,m,,,,,0,49,49,78,,,0.4,0.6,exp,m,1,7.16,-7.16,10.14,0,-7.16,-7.16,-10.14,0,-7.16,7.16,7.16,7.16,2,242,30,4435,0.6807062000007136,249,250,8,RL,1,f,26,r,2025-04-16_12h13.50.142,RewSL_RL_EEG,
ping,lowB,downLeft,DOWN,red,r,lowA,Stimuli\red_bar1.png,Stimuli\red_bar1.png,Stimuli\ping.png,midRight,high,midLeft,lowC,downRight,upLeft,upRight,1,rew_low,m,,,,,0,50,50,62,,,0.6,0.7,exp,m,1,-7.16,-7.16,10.14,0,-10.14,0,7.16,-7.16,-7.16,7.16,7.16,7.16,2,232,30,4436,0.6394470000086585,250,251,8,RL,1,f,26,r,2025-04-16_12h13.50.142,RewSL_RL_EEG,
ping,lowA,midRight,UP,green,l,high,Stimuli\green_bar1.png,Stimuli\green_bar1.png,Stimuli\ping.png,midLeft,lowB,downLeft,lowC,downRight,upLeft,upRight,1,rew_low,z,,,,,0,51,51,33,,,0.4,0.7,exp,z,1,10.14,0,-10.14,0,-7.16,-7.16,7.16,-7.16,-7.16,7.16,7.16,7.16,2,122,30,4437,0.631028999996488,251,252,8,RL,1,f,26,r,2025-04-16_12h13.50.142,RewSL_RL_EEG,
ping,high,midLeft,DOWN,red,r,lowA,Stimuli\red_bar1.png,Stimuli\red_bar1.png,Stimuli\ping.png,midRight,lowB,downLeft,lowC,downRight,upLeft,upRight,1,rew_high,m,,,,,0,52,52,14,,,0.5,0.8,exp,m,1,-10.14,0,10.14,0,-7.16,-7.16,7.16,-7.16,-7.16,7.16,7.16,7.16,2,212,31,4537,0.6358870999974897,252,253,8,RL,1,f,26,r,2025-04-16_12h13.50.142,RewSL_RL_EEG,
ping,lowA,midRight,DOWN,green,l,high,Stimuli\green_bar1.png,Stimuli\green_bar1.png,Stimuli\ping.png,midLeft,lowB,downLeft,lowC,downRight,upLeft,upRight,1,rew_low,m,,,,,0,53,53,27,,,0.4,0.8,exp,z,0,10.14,0,-10.14,0,-7.16,-7.16,7.16,-7.16,-7.16,7.16,7.16,7.16,2,222,30,4537,0.5305885999987368,253,254,8,RL,1,f,26,r,2025-04-16_12h13.50.142,RewSL_RL_EEG,
ping,lowA,midRight,DOWN,red,r,high,Stimuli\red_bar1.png,Stimuli\red_bar1.png,Stimuli\ping.png,midLeft,lowB,downLeft,lowC,downRight,upLeft,upRight,1,rew_low,m,,,,,0,54,54,38,,,0.5,0.7,exp,m,1,10.14,0,-10.14,0,-7.16,-7.16,7.16,-7.16,-7.16,7.16,7.16,7.16,2,222,30,4538,0.48931269999593496,254,255,8,RL,1,f,26,r,2025-04-16_12h13.50.142,RewSL_RL_EEG,
ping,lowA,midRight,DOWN,red,l,high,Stimuli\red_bar1.png,Stimuli\red_bar1.png,Stimuli\ping.png,midLeft,lowB,downLeft,lowC,downRight,upLeft,upRight,1,rew_low,m,,,,,0,55,55,34,,,0.4,0.6,exp,m,1,10.14,0,-10.14,0,-7.16,-7.16,7.16,-7.16,-7.16,7.16,7.16,7.16,2,222,30,4539,0.460462600007304,255,256,8,RL,1,f,26,r,2025-04-16_12h13.50.142,RewSL_RL_EEG,
ping,high,midLeft,DOWN,green,r,lowA,Stimuli\green_bar1.png,Stimuli\green_bar1.png,Stimuli\ping.png,midRight,lowB,downLeft,lowC,downRight,upLeft,upRight,1,rew_high,m,,,,,0,56,56,7,,,0.6,0.6,exp,m,1,-10.14,0,10.14,0,-7.16,-7.16,7.16,-7.16,-7.16,7.16,7.16,7.16,2,212,31,4639,0.6067190000030678,256,257,8,RL,1,f,26,r,2025-04-16_12h13.50.142,RewSL_RL_EEG,
ping,lowB,downLeft,UP,red,l,lowA,Stimuli\red_bar1.png,Stimuli\red_bar1.png,Stimuli\ping.png,midRight,high,midLeft,lowC,downRight,upLeft,upRight,1,rew_low,z,,,,,0,57,57,72,,,0.6,0.7,exp,z,1,-7.16,-7.16,10.14,0,-10.14,0,7.16,-7.16,-7.16,7.16,7.16,7.16,2,132,30,4640,0.6478853000007803,257,258,8,RL,1,f,26,r,2025-04-16_12h13.50.142,RewSL_RL_EEG,
ping,high,midLeft,UP,green,r,lowA,Stimuli\green_bar1.png,Stimuli\green_bar1.png,Stimuli\ping.png,midRight,lowB,downLeft,lowC,downRight,upLeft,upRight,1,rew_high,z,,,,,0,58,58,21,,,0.6,0.6,exp,z,1,-10.14,0,10.14,0,-7.16,-7.16,7.16,-7.16,-7.16,7.16,7.16,7.16,2,112,31,4740,0.6434573000005912,258,259,8,RL,1,f,26,r,2025-04-16_12h13.50.142,RewSL_RL_EEG,
ping,high,midLeft,DOWN,green,l,lowA,Stimuli\green_bar1.png,Stimuli\green_bar1.png,Stimuli\ping.png,midRight,lowB,downLeft,lowC,downRight,upLeft,upRight,1,rew_high,m,,,,,0,59,59,3,,,0.4,0.7,exp,m,1,-10.14,0,10.14,0,-7.16,-7.16,7.16,-7.16,-7.16,7.16,7.16,7.16,2,212,31,4840,0.7195809999975609,259,260,8,RL,1,f,26,r,2025-04-16_12h13.50.142,RewSL_RL_EEG,
ping,lowB,downLeft,DOWN,red,l,lowA,Stimuli\red_bar1.png,Stimuli\red_bar1.png,Stimuli\ping.png,midRight,high,midLeft,lowC,downRight,upLeft,upRight,1,rew_low,m,,,,,0,60,60,58,,,0.5,0.7,exp,m,1,-7.16,-7.16,10.14,0,-10.14,0,7.16,-7.16,-7.16,7.16,7.16,7.16,2,232,30,4841,0.6767343999963487,260,261,8,RL,1,f,26,r,2025-04-16_12h13.50.142,RewSL_RL_EEG,
ping,lowA,midRight,UP,red,l,high,Stimuli\red_bar1.png,Stimuli\red_bar1.png,Stimuli\ping.png,midLeft,lowB,downLeft,lowC,downRight,upLeft,upRight,1,rew_low,z,,,,,0,61,61,32,,,0.5,0.7,exp,z,1,10.14,0,-10.14,0,-7.16,-7.16,7.16,-7.16,-7.16,7.16,7.16,7.16,2,122,30,4842,0.5603081999870483,261,262,8,RL,1,f,26,r,2025-04-16_12h13.50.142,RewSL_RL_EEG,
ping,high,midLeft,DOWN,red,l,lowA,Stimuli\red_bar1.png,Stimuli\red_bar1.png,Stimuli\ping.png,midRight,lowB,downLeft,lowC,downRight,upLeft,upRight,1,rew_high,m,,,,,0,62,62,18,,,0.4,0.7,exp,m,1,-10.14,0,10.14,0,-7.16,-7.16,7.16,-7.16,-7.16,7.16,7.16,7.16,2,212,31,4942,0.4688882999907946,262,263,8,RL,1,f,26,r,2025-04-16_12h13.50.142,RewSL_RL_EEG,
ping,lowC,downRight,UP,green,l,lowA,Stimuli\green_bar1.png,Stimuli\green_bar1.png,Stimuli\ping.png,midRight,lowB,downLeft,high,midLeft,upLeft,upRight,1,rew_low,z,,,,,0,63,63,81,,,0.5,0.7,exp,z,1,7.16,-7.16,10.14,0,-7.16,-7.16,-10.14,0,-7.16,7.16,7.16,7.16,2,142,30,4943,0.7146426999970572,263,264,8,RL,1,f,26,r,2025-04-16_12h13.50.142,RewSL_RL_EEG,
ping,lowC,downRight,DOWN,red,l,lowA,Stimuli\red_bar1.png,Stimuli\red_bar1.png,Stimuli\ping.png,midRight,lowB,downLeft,high,midLeft,upLeft,upRight,1,rew_low,m,,,,,0,64,64,90,,,0.6,0.8,exp,m,1,7.16,-7.16,10.14,0,-7.16,-7.16,-10.14,0,-7.16,7.16,7.16,7.16,2,242,30,4944,0.5899040999938734,264,265,8,RL,1,f,26,r,2025-04-16_12h13.50.142,RewSL_RL_EEG,
ping,lowB,downLeft,DOWN,green,l,lowA,Stimuli\green_bar1.png,Stimuli\green_bar1.png,Stimuli\ping.png,midRight,high,midLeft,lowC,downRight,upLeft,upRight,1,rew_low,m,,,,,0,65,65,59,,,0.6,0.6,exp,m,1,-7.16,-7.16,10.14,0,-10.14,0,7.16,-7.16,-7.16,7.16,7.16,7.16,2,232,30,4945,0.6310909000021638,265,266,8,RL,1,f,26,r,2025-04-16_12h13.50.142,RewSL_RL_EEG,
ping,lowB,downLeft,UP,green,l,lowA,Stimuli\green_bar1.png,Stimuli\green_bar1.png,Stimuli\ping.png,midRight,high,midLeft,lowC,downRight,upLeft,upRight,1,rew_low,z,,,,,0,66,66,65,,,0.4,0.6,exp,z,1,-7.16,-7.16,10.14,0,-10.14,0,7.16,-7.16,-7.16,7.16,7.16,7.16,2,132,30,4946,0.8402307999931509,266,267,8,RL,1,f,26,r,2025-04-16_12h13.50.142,RewSL_RL_EEG,
ping,lowB,downLeft,UP,green,r,lowA,Stimuli\green_bar1.png,Stimuli\green_bar1.png,Stimuli\ping.png,midRight,high,midLeft,lowC,downRight,upLeft,upRight,1,rew_low,z,,,,,0,67,67,61,,,0.5,0.7,exp,z,1,-7.16,-7.16,10.14,0,-10.14,0,7.16,-7.16,-7.16,7.16,7.16,7.16,2,132,30,4947,0.8980729999893811,267,268,8,RL,1,f,26,r,2025-04-16_12h13.50.142,RewSL_RL_EEG,
ping,lowC,downRight,UP,red,l,lowA,Stimuli\red_bar1.png,Stimuli\red_bar1.png,Stimuli\ping.png,midRight,lowB,downLeft,high,midLeft,upLeft,upRight,1,rew_low,z,,,,,0,68,68,88,,,0.5,0.7,exp,z,1,7.16,-7.16,10.14,0,-7.16,-7.16,-10.14,0,-7.16,7.16,7.16,7.16,2,142,30,4948,0.7512080000014976,268,269,8,RL,1,f,26,r,2025-04-16_12h13.50.142,RewSL_RL_EEG,
ping,lowC,downRight,DOWN,red,r,lowA,Stimuli\red_bar1.png,Stimuli\red_bar1.png,Stimuli\ping.png,midRight,lowB,downLeft,high,midLeft,upLeft,upRight,1,rew_low,m,,,,,0,69,69,94,,,0.6,0.8,exp,m,1,7.16,-7.16,10.14,0,-7.16,-7.16,-10.14,0,-7.16,7.16,7.16,7.16,2,242,30,4949,0.5605729000089923,269,270,8,RL,1,f,26,r,2025-04-16_12h13.50.142,RewSL_RL_EEG,
ping,lowB,downLeft,DOWN,green,l,lowA,Stimuli\green_bar1.png,Stimuli\green_bar1.png,Stimuli\ping.png,midRight,high,midLeft,lowC,downRight,upLeft,upRight,1,rew_low,m,,,,,0,70,70,67,,,0.4,0.7,exp,z,0,-7.16,-7.16,10.14,0,-10.14,0,7.16,-7.16,-7.16,7.16,7.16,7.16,2,232,30,4949,0.5601390999945579,270,271,8,RL,1,f,26,r,2025-04-16_12h13.50.142,RewSL_RL_EEG,
ping,lowA,midRight,UP,green,l,high,Stimuli\green_bar1.png,Stimuli\green_bar1.png,Stimuli\ping.png,midLeft,lowB,downLeft,lowC,downRight,upLeft,upRight,1,rew_low,z,,,,,0,71,71,25,,,0.4,0.7,exp,z,1,10.14,0,-10.14,0,-7.16,-7.16,7.16,-7.16,-7.16,7.16,7.16,7.16,2,122,30,4950,0.7974563000025228,271,272,8,RL,1,f,26,r,2025-04-16_12h13.50.142,RewSL_RL_EEG,
