trial_type,t_frequency,targetPos,Gap,arrayColor,targetOri,f1_frequency,TargetFile,stimuliFile,pingFile,f1_pos,f2_frequency,f2_pos,f3_frequency,f3_pos,f4_pos,f5_pos,Rlblock,Reward,corrAns,trials_p.thisRepN,trials_p.thisTrialN,trials_p.thisN,trials_p.thisIndex,trials_e.thisRepN,trials_e.thisTrialN,trials_e.thisN,trials_e.thisIndex,thisRow.t,notes,FIX,PINGdur,epoch,key_resp.keys,key_resp.corr,targetX,targetY,filler1X,filler1Y,filler2X,filler2Y,filler3X,filler3Y,filler4X,filler4Y,filler5X,filler5Y,pingID,ID,rewID,reward_sum,key_resp.rt,completed_trials,trial_count,participant,learning,session_nr,gender,age,handedness,date,expName,
ping,lowB,downLeft,UP,green,r,lowA,Stimuli\green_bar1.png,Stimuli\green_bar1.png,Stimuli\ping.png,midRight,high,midLeft,lowC,downRight,upLeft,upRight,1,rew_low,z,0,0,0,9,,,,,,,0.5,0.7,practice,None,0,-7.16,-7.16,10.14,0,-10.14,0,7.16,-7.16,-7.16,7.16,7.16,7.16,2,132,30,0,,,,9,RL,1,F,23,R,2025-04-18_14h20.42.973,RewSL_RL_EEG,
ping,lowA,midRight,UP,red,r,high,Stimuli\red_bar1.png,Stimuli\red_bar1.png,Stimuli\ping.png,midLeft,lowB,downLeft,lowC,downRight,upLeft,upRight,1,rew_low,z,0,1,1,6,,,,,,,0.6,0.7,practice,m,0,10.14,0,-10.14,0,-7.16,-7.16,7.16,-7.16,-7.16,7.16,7.16,7.16,2,122,30,0,1.2237640000093961,,,9,RL,1,F,23,R,2025-04-18_14h20.42.973,RewSL_RL_EEG,
ping,lowB,downLeft,DOWN,red,r,lowA,Stimuli\red_bar1.png,Stimuli\red_bar1.png,Stimuli\ping.png,midRight,high,midLeft,lowC,downRight,upLeft,upRight,1,rew_low,m,0,2,2,10,,,,,,,0.5,0.8,practice,z,0,-7.16,-7.16,10.14,0,-10.14,0,7.16,-7.16,-7.16,7.16,7.16,7.16,2,232,30,0,1.2562040000048,,,9,RL,1,F,23,R,2025-04-18_14h20.42.973,RewSL_RL_EEG,
ping,lowC,downRight,UP,green,l,lowA,Stimuli\green_bar1.png,Stimuli\green_bar1.png,Stimuli\ping.png,midRight,lowB,downLeft,high,midLeft,upLeft,upRight,1,rew_low,z,0,3,3,15,,,,,,,0.5,0.7,practice,m,0,7.16,-7.16,10.14,0,-7.16,-7.16,-10.14,0,-7.16,7.16,7.16,7.16,2,142,30,0,0.8980126999958884,,,9,RL,1,F,23,R,2025-04-18_14h20.42.973,RewSL_RL_EEG,
ping,lowC,downRight,UP,red,l,lowA,Stimuli\red_bar1.png,Stimuli\red_bar1.png,Stimuli\ping.png,midRight,lowB,downLeft,high,midLeft,upLeft,upRight,1,rew_low,z,0,4,4,14,,,,,,,0.6,0.8,practice,m,0,7.16,-7.16,10.14,0,-7.16,-7.16,-10.14,0,-7.16,7.16,7.16,7.16,2,142,30,0,0.8360128999920562,,,9,RL,1,F,23,R,2025-04-18_14h20.42.973,RewSL_RL_EEG,
ping,lowC,downRight,DOWN,red,r,lowA,Stimuli\red_bar1.png,Stimuli\red_bar1.png,Stimuli\ping.png,midRight,lowB,downLeft,high,midLeft,upLeft,upRight,1,rew_low,m,0,5,5,12,,,,,,,0.4,0.7,practice,None,0,7.16,-7.16,10.14,0,-7.16,-7.16,-10.14,0,-7.16,7.16,7.16,7.16,2,242,30,0,,,,9,RL,1,F,23,R,2025-04-18_14h20.42.973,RewSL_RL_EEG,
ping,high,midLeft,UP,green,l,lowA,Stimuli\green_bar1.png,Stimuli\green_bar1.png,Stimuli\ping.png,midRight,lowB,downLeft,lowC,downRight,upLeft,upRight,1,rew_high,z,0,6,6,1,,,,,,,0.6,0.7,practice,None,0,-10.14,0,10.14,0,-7.16,-7.16,7.16,-7.16,-7.16,7.16,7.16,7.16,2,112,31,0,,,,9,RL,1,F,23,R,2025-04-18_14h20.42.973,RewSL_RL_EEG,
ping,lowA,midRight,DOWN,red,l,high,Stimuli\red_bar1.png,Stimuli\red_bar1.png,Stimuli\ping.png,midLeft,lowB,downLeft,lowC,downRight,upLeft,upRight,1,rew_low,m,0,7,7,4,,,,,,,0.4,0.7,practice,m,1,10.14,0,-10.14,0,-7.16,-7.16,7.16,-7.16,-7.16,7.16,7.16,7.16,2,222,30,1,0.865177700005006,,,9,RL,1,F,23,R,2025-04-18_14h20.42.973,RewSL_RL_EEG,
ping,high,midLeft,DOWN,green,l,lowA,Stimuli\green_bar1.png,Stimuli\green_bar1.png,Stimuli\ping.png,midRight,lowB,downLeft,lowC,downRight,upLeft,upRight,1,rew_high,m,0,8,8,3,,,,,,,0.4,0.7,practice,m,1,-10.14,0,10.14,0,-7.16,-7.16,7.16,-7.16,-7.16,7.16,7.16,7.16,2,212,31,101,0.906758400000399,,,9,RL,1,F,23,R,2025-04-18_14h20.42.973,RewSL_RL_EEG,
ping,lowB,downLeft,DOWN,green,r,lowA,Stimuli\green_bar1.png,Stimuli\green_bar1.png,Stimuli\ping.png,midRight,high,midLeft,lowC,downRight,upLeft,upRight,1,rew_low,m,0,9,9,11,,,,,,,0.6,0.8,practice,m,1,-7.16,-7.16,10.14,0,-10.14,0,7.16,-7.16,-7.16,7.16,7.16,7.16,2,232,30,102,0.9108012999931816,,,9,RL,1,F,23,R,2025-04-18_14h20.42.973,RewSL_RL_EEG,
ping,high,midLeft,DOWN,red,l,lowA,Stimuli\red_bar1.png,Stimuli\red_bar1.png,Stimuli\ping.png,midRight,lowB,downLeft,lowC,downRight,upLeft,upRight,1,rew_high,m,0,10,10,2,,,,,,,0.6,0.7,practice,z,0,-10.14,0,10.14,0,-7.16,-7.16,7.16,-7.16,-7.16,7.16,7.16,7.16,2,212,31,102,0.86959200000274,,,9,RL,1,F,23,R,2025-04-18_14h20.42.973,RewSL_RL_EEG,
ping,lowA,midRight,DOWN,green,l,high,Stimuli\green_bar1.png,Stimuli\green_bar1.png,Stimuli\ping.png,midLeft,lowB,downLeft,lowC,downRight,upLeft,upRight,1,rew_low,m,0,11,11,5,,,,,,,0.4,0.7,practice,m,1,10.14,0,-10.14,0,-7.16,-7.16,7.16,-7.16,-7.16,7.16,7.16,7.16,2,222,30,103,0.45162059999711346,,,9,RL,1,F,23,R,2025-04-18_14h20.42.973,RewSL_RL_EEG,
ping,lowA,midRight,UP,green,r,high,Stimuli\green_bar1.png,Stimuli\green_bar1.png,Stimuli\ping.png,midLeft,lowB,downLeft,lowC,downRight,upLeft,upRight,1,rew_low,z,0,12,12,7,,,,,,,0.4,0.7,practice,z,1,10.14,0,-10.14,0,-7.16,-7.16,7.16,-7.16,-7.16,7.16,7.16,7.16,2,122,30,104,1.072432500004652,,,9,RL,1,F,23,R,2025-04-18_14h20.42.973,RewSL_RL_EEG,
ping,high,midLeft,UP,red,l,lowA,Stimuli\red_bar1.png,Stimuli\red_bar1.png,Stimuli\ping.png,midRight,lowB,downLeft,lowC,downRight,upLeft,upRight,1,rew_high,z,0,13,13,0,,,,,,,0.5,0.8,practice,None,0,-10.14,0,10.14,0,-7.16,-7.16,7.16,-7.16,-7.16,7.16,7.16,7.16,2,112,31,104,,,,9,RL,1,F,23,R,2025-04-18_14h20.42.973,RewSL_RL_EEG,
ping,lowC,downRight,DOWN,green,r,lowA,Stimuli\green_bar1.png,Stimuli\green_bar1.png,Stimuli\ping.png,midRight,lowB,downLeft,high,midLeft,upLeft,upRight,1,rew_low,m,0,14,14,13,,,,,,,0.6,0.8,practice,m,1,7.16,-7.16,10.14,0,-7.16,-7.16,-10.14,0,-7.16,7.16,7.16,7.16,2,242,30,105,0.818639200006146,,,9,RL,1,F,23,R,2025-04-18_14h20.42.973,RewSL_RL_EEG,
ping,lowB,downLeft,UP,red,r,lowA,Stimuli\red_bar1.png,Stimuli\red_bar1.png,Stimuli\ping.png,midRight,high,midLeft,lowC,downRight,upLeft,upRight,1,rew_low,z,0,15,15,8,,,,,,,0.5,0.7,practice,z,1,-7.16,-7.16,10.14,0,-10.14,0,7.16,-7.16,-7.16,7.16,7.16,7.16,2,132,30,106,1.1809803999931319,,,9,RL,1,F,23,R,2025-04-18_14h20.42.973,RewSL_RL_EEG,
ping,high,downLeft,DOWN,green,l,lowA,Stimuli\green_bar1.png,Stimuli\green_bar1.png,Stimuli\ping.png,downRight,lowB,midLeft,lowC,midRight,upLeft,upRight,3,rew_high,m,,,,,0,0,0,19,,,0.5,0.8,exp,m,1,-7.16,-7.16,7.16,-7.16,-10.14,0,10.14,0,-7.16,7.16,7.16,7.16,6,236,31,100,0.547186600000714,0,1,9,RL,1,F,23,R,2025-04-18_14h20.42.973,RewSL_RL_EEG,
ping,lowB,midLeft,DOWN,green,l,lowA,Stimuli\green_bar1.png,Stimuli\green_bar1.png,Stimuli\ping.png,downRight,high,downLeft,lowC,midRight,upLeft,upRight,3,rew_low,m,,,,,0,1,1,67,,,0.6,0.7,exp,z,0,-10.14,0,7.16,-7.16,-7.16,-7.16,10.14,0,-7.16,7.16,7.16,7.16,6,216,30,100,1.2314118999929633,1,2,9,RL,1,F,23,R,2025-04-18_14h20.42.973,RewSL_RL_EEG,
ping,high,downLeft,DOWN,green,l,lowA,Stimuli\green_bar1.png,Stimuli\green_bar1.png,Stimuli\ping.png,downRight,lowB,midLeft,lowC,midRight,upLeft,upRight,3,rew_high,m,,,,,0,2,2,3,,,0.6,0.7,exp,m,1,-7.16,-7.16,7.16,-7.16,-10.14,0,10.14,0,-7.16,7.16,7.16,7.16,6,236,31,200,0.802446499990765,2,3,9,RL,1,F,23,R,2025-04-18_14h20.42.973,RewSL_RL_EEG,
ping,lowA,downRight,DOWN,red,l,high,Stimuli\red_bar1.png,Stimuli\red_bar1.png,Stimuli\ping.png,downLeft,lowB,midLeft,lowC,midRight,upLeft,upRight,3,rew_low,m,,,,,0,3,3,34,,,0.4,0.7,exp,m,1,7.16,-7.16,-7.16,-7.16,-10.14,0,10.14,0,-7.16,7.16,7.16,7.16,6,246,30,201,0.7179522999940673,3,4,9,RL,1,F,23,R,2025-04-18_14h20.42.973,RewSL_RL_EEG,
ping,lowB,midLeft,UP,red,l,lowA,Stimuli\red_bar1.png,Stimuli\red_bar1.png,Stimuli\ping.png,downRight,high,downLeft,lowC,midRight,upLeft,upRight,3,rew_low,z,,,,,0,4,4,72,,,0.5,0.8,exp,m,0,-10.14,0,7.16,-7.16,-7.16,-7.16,10.14,0,-7.16,7.16,7.16,7.16,6,116,30,201,1.0643141000036849,4,5,9,RL,1,F,23,R,2025-04-18_14h20.42.973,RewSL_RL_EEG,
ping,lowA,downRight,DOWN,green,l,high,Stimuli\green_bar1.png,Stimuli\green_bar1.png,Stimuli\ping.png,downLeft,lowB,midLeft,lowC,midRight,upLeft,upRight,3,rew_low,m,,,,,0,5,5,27,,,0.6,0.7,exp,m,1,7.16,-7.16,-7.16,-7.16,-10.14,0,10.14,0,-7.16,7.16,7.16,7.16,6,246,30,202,1.209879699992598,5,6,9,RL,1,F,23,R,2025-04-18_14h20.42.973,RewSL_RL_EEG,
ping,high,downLeft,DOWN,red,r,lowA,Stimuli\red_bar1.png,Stimuli\red_bar1.png,Stimuli\ping.png,downRight,lowB,midLeft,lowC,midRight,upLeft,upRight,3,rew_high,m,,,,,0,6,6,14,,,0.5,0.7,exp,z,0,-7.16,-7.16,7.16,-7.16,-10.14,0,10.14,0,-7.16,7.16,7.16,7.16,6,236,31,202,1.169123599989689,6,7,9,RL,1,F,23,R,2025-04-18_14h20.42.973,RewSL_RL_EEG,
ping,lowA,downRight,DOWN,green,r,high,Stimuli\green_bar1.png,Stimuli\green_bar1.png,Stimuli\ping.png,downLeft,lowB,midLeft,lowC,midRight,upLeft,upRight,3,rew_low,m,,,,,0,7,7,31,,,0.5,0.6,exp,z,0,7.16,-7.16,-7.16,-7.16,-10.14,0,10.14,0,-7.16,7.16,7.16,7.16,6,246,30,202,1.1148167999926955,7,8,9,RL,1,F,23,R,2025-04-18_14h20.42.973,RewSL_RL_EEG,
ping,lowA,downRight,UP,green,l,high,Stimuli\green_bar1.png,Stimuli\green_bar1.png,Stimuli\ping.png,downLeft,lowB,midLeft,lowC,midRight,upLeft,upRight,3,rew_low,z,,,,,0,8,8,49,,,0.6,0.8,exp,m,0,7.16,-7.16,-7.16,-7.16,-10.14,0,10.14,0,-7.16,7.16,7.16,7.16,6,146,30,202,0.8397788000002038,8,9,9,RL,1,F,23,R,2025-04-18_14h20.42.973,RewSL_RL_EEG,
ping,lowC,midRight,UP,green,l,lowA,Stimuli\green_bar1.png,Stimuli\green_bar1.png,Stimuli\ping.png,downRight,lowB,midLeft,high,downLeft,upLeft,upRight,3,rew_low,z,,,,,0,9,9,97,,,0.6,0.8,exp,m,0,10.14,0,7.16,-7.16,-10.14,0,-7.16,-7.16,-7.16,7.16,7.16,7.16,6,126,30,202,0.5237315999984276,9,10,9,RL,1,F,23,R,2025-04-18_14h20.42.973,RewSL_RL_EEG,
ping,lowA,downRight,UP,green,l,high,Stimuli\green_bar1.png,Stimuli\green_bar1.png,Stimuli\ping.png,downLeft,lowB,midLeft,lowC,midRight,upLeft,upRight,3,rew_low,z,,,,,0,10,10,25,,,0.5,0.6,exp,m,0,7.16,-7.16,-7.16,-7.16,-10.14,0,10.14,0,-7.16,7.16,7.16,7.16,6,146,30,202,0.9982128999981796,10,11,9,RL,1,F,23,R,2025-04-18_14h20.42.973,RewSL_RL_EEG,
ping,lowA,downRight,DOWN,green,r,high,Stimuli\green_bar1.png,Stimuli\green_bar1.png,Stimuli\ping.png,downLeft,lowB,midLeft,lowC,midRight,upLeft,upRight,3,rew_low,m,,,,,0,11,11,39,,,0.6,0.8,exp,m,1,7.16,-7.16,-7.16,-7.16,-10.14,0,10.14,0,-7.16,7.16,7.16,7.16,6,246,30,203,0.8104316999961156,11,12,9,RL,1,F,23,R,2025-04-18_14h20.42.973,RewSL_RL_EEG,
ping,high,downLeft,UP,green,l,lowA,Stimuli\green_bar1.png,Stimuli\green_bar1.png,Stimuli\ping.png,downRight,lowB,midLeft,lowC,midRight,upLeft,upRight,3,rew_high,z,,,,,0,12,12,17,,,0.5,0.8,exp,z,1,-7.16,-7.16,7.16,-7.16,-10.14,0,10.14,0,-7.16,7.16,7.16,7.16,6,136,31,303,0.7603904000134207,12,13,9,RL,1,F,23,R,2025-04-18_14h20.42.973,RewSL_RL_EEG,
ping,lowB,midLeft,DOWN,green,r,lowA,Stimuli\green_bar1.png,Stimuli\green_bar1.png,Stimuli\ping.png,downRight,high,downLeft,lowC,midRight,upLeft,upRight,3,rew_low,m,,,,,0,13,13,63,,,0.6,0.7,exp,m,1,-10.14,0,7.16,-7.16,-7.16,-7.16,10.14,0,-7.16,7.16,7.16,7.16,6,216,30,304,0.8616044999944279,13,14,9,RL,1,F,23,R,2025-04-18_14h20.42.973,RewSL_RL_EEG,
ping,high,downLeft,DOWN,green,r,lowA,Stimuli\green_bar1.png,Stimuli\green_bar1.png,Stimuli\ping.png,downRight,lowB,midLeft,lowC,midRight,upLeft,upRight,3,rew_high,m,,,,,0,14,14,15,,,0.4,0.6,exp,m,1,-7.16,-7.16,7.16,-7.16,-10.14,0,10.14,0,-7.16,7.16,7.16,7.16,6,236,31,404,0.7561328999872785,14,15,9,RL,1,F,23,R,2025-04-18_14h20.42.973,RewSL_RL_EEG,
ping,high,downLeft,DOWN,green,r,lowA,Stimuli\green_bar1.png,Stimuli\green_bar1.png,Stimuli\ping.png,downRight,lowB,midLeft,lowC,midRight,upLeft,upRight,3,rew_high,m,,,,,0,15,15,23,,,0.4,0.7,exp,z,0,-7.16,-7.16,7.16,-7.16,-10.14,0,10.14,0,-7.16,7.16,7.16,7.16,6,236,31,404,0.7854425999976229,15,16,9,RL,1,F,23,R,2025-04-18_14h20.42.973,RewSL_RL_EEG,
ping,high,downLeft,UP,red,l,lowA,Stimuli\red_bar1.png,Stimuli\red_bar1.png,Stimuli\ping.png,downRight,lowB,midLeft,lowC,midRight,upLeft,upRight,3,rew_high,z,,,,,0,16,16,0,,,0.4,0.7,exp,m,0,-7.16,-7.16,7.16,-7.16,-10.14,0,10.14,0,-7.16,7.16,7.16,7.16,6,136,31,404,0.927044099997147,16,17,9,RL,1,F,23,R,2025-04-18_14h20.42.973,RewSL_RL_EEG,
ping,lowB,midLeft,DOWN,red,r,lowA,Stimuli\red_bar1.png,Stimuli\red_bar1.png,Stimuli\ping.png,downRight,high,downLeft,lowC,midRight,upLeft,upRight,3,rew_low,m,,,,,0,17,17,70,,,0.5,0.8,exp,m,1,-10.14,0,7.16,-7.16,-7.16,-7.16,10.14,0,-7.16,7.16,7.16,7.16,6,216,30,405,0.8691194000130054,17,18,9,RL,1,F,23,R,2025-04-18_14h20.42.973,RewSL_RL_EEG,
ping,high,downLeft,UP,green,l,lowA,Stimuli\green_bar1.png,Stimuli\green_bar1.png,Stimuli\ping.png,downRight,lowB,midLeft,lowC,midRight,upLeft,upRight,3,rew_high,z,,,,,0,18,18,1,,,0.4,0.8,exp,m,0,-7.16,-7.16,7.16,-7.16,-10.14,0,10.14,0,-7.16,7.16,7.16,7.16,6,136,31,405,0.8478414000128396,18,19,9,RL,1,F,23,R,2025-04-18_14h20.42.973,RewSL_RL_EEG,
ping,high,downLeft,UP,red,l,lowA,Stimuli\red_bar1.png,Stimuli\red_bar1.png,Stimuli\ping.png,downRight,lowB,midLeft,lowC,midRight,upLeft,upRight,3,rew_high,z,,,,,0,19,19,24,,,0.5,0.8,exp,z,1,-7.16,-7.16,7.16,-7.16,-10.14,0,10.14,0,-7.16,7.16,7.16,7.16,6,136,31,505,0.7775890000048093,19,20,9,RL,1,F,23,R,2025-04-18_14h20.42.973,RewSL_RL_EEG,
ping,lowA,downRight,DOWN,green,l,high,Stimuli\green_bar1.png,Stimuli\green_bar1.png,Stimuli\ping.png,downLeft,lowB,midLeft,lowC,midRight,upLeft,upRight,3,rew_low,m,,,,,0,20,20,43,,,0.4,0.8,exp,m,1,7.16,-7.16,-7.16,-7.16,-10.14,0,10.14,0,-7.16,7.16,7.16,7.16,6,246,30,506,0.847629700001562,20,21,9,RL,1,F,23,R,2025-04-18_14h20.42.973,RewSL_RL_EEG,
ping,high,downLeft,DOWN,red,r,lowA,Stimuli\red_bar1.png,Stimuli\red_bar1.png,Stimuli\ping.png,downRight,lowB,midLeft,lowC,midRight,upLeft,upRight,3,rew_high,m,,,,,0,21,21,22,,,0.6,0.7,exp,z,0,-7.16,-7.16,7.16,-7.16,-10.14,0,10.14,0,-7.16,7.16,7.16,7.16,6,236,31,506,0.7900147000036668,21,22,9,RL,1,F,23,R,2025-04-18_14h20.42.973,RewSL_RL_EEG,
ping,lowC,midRight,DOWN,green,r,lowA,Stimuli\green_bar1.png,Stimuli\green_bar1.png,Stimuli\ping.png,downRight,lowB,midLeft,high,downLeft,upLeft,upRight,3,rew_low,m,,,,,0,22,22,99,,,0.6,0.7,exp,m,1,10.14,0,7.16,-7.16,-10.14,0,-7.16,-7.16,-7.16,7.16,7.16,7.16,6,226,30,507,0.7981932999973651,22,23,9,RL,1,F,23,R,2025-04-18_14h20.42.973,RewSL_RL_EEG,
ping,lowC,midRight,DOWN,green,r,lowA,Stimuli\green_bar1.png,Stimuli\green_bar1.png,Stimuli\ping.png,downRight,lowB,midLeft,high,downLeft,upLeft,upRight,3,rew_low,m,,,,,0,23,23,87,,,0.5,0.7,exp,m,1,10.14,0,7.16,-7.16,-10.14,0,-7.16,-7.16,-7.16,7.16,7.16,7.16,6,226,30,508,0.6981547000032151,23,24,9,RL,1,F,23,R,2025-04-18_14h20.42.973,RewSL_RL_EEG,
ping,lowA,downRight,DOWN,red,l,high,Stimuli\red_bar1.png,Stimuli\red_bar1.png,Stimuli\ping.png,downLeft,lowB,midLeft,lowC,midRight,upLeft,upRight,3,rew_low,m,,,,,0,24,24,42,,,0.5,0.7,exp,z,0,7.16,-7.16,-7.16,-7.16,-10.14,0,10.14,0,-7.16,7.16,7.16,7.16,6,246,30,508,0.8645758999919053,24,25,9,RL,1,F,23,R,2025-04-18_14h20.42.973,RewSL_RL_EEG,
ping,lowA,downRight,DOWN,red,l,high,Stimuli\red_bar1.png,Stimuli\red_bar1.png,Stimuli\ping.png,downLeft,lowB,midLeft,lowC,midRight,upLeft,upRight,3,rew_low,m,,,,,0,25,25,26,,,0.5,0.6,exp,m,1,7.16,-7.16,-7.16,-7.16,-10.14,0,10.14,0,-7.16,7.16,7.16,7.16,6,246,30,509,0.8766370999946957,25,26,9,RL,1,F,23,R,2025-04-18_14h20.42.973,RewSL_RL_EEG,
ping,lowB,midLeft,DOWN,green,l,lowA,Stimuli\green_bar1.png,Stimuli\green_bar1.png,Stimuli\ping.png,downRight,high,downLeft,lowC,midRight,upLeft,upRight,3,rew_low,m,,,,,0,26,26,59,,,0.5,0.8,exp,z,0,-10.14,0,7.16,-7.16,-7.16,-7.16,10.14,0,-7.16,7.16,7.16,7.16,6,216,30,509,0.8641950000019278,26,27,9,RL,1,F,23,R,2025-04-18_14h20.42.973,RewSL_RL_EEG,
ping,lowB,midLeft,DOWN,green,r,lowA,Stimuli\green_bar1.png,Stimuli\green_bar1.png,Stimuli\ping.png,downRight,high,downLeft,lowC,midRight,upLeft,upRight,3,rew_low,m,,,,,0,27,27,55,,,0.5,0.8,exp,m,1,-10.14,0,7.16,-7.16,-7.16,-7.16,10.14,0,-7.16,7.16,7.16,7.16,6,216,30,510,0.9481377999909455,27,28,9,RL,1,F,23,R,2025-04-18_14h20.42.973,RewSL_RL_EEG,
ping,high,downLeft,UP,red,l,lowA,Stimuli\red_bar1.png,Stimuli\red_bar1.png,Stimuli\ping.png,downRight,lowB,midLeft,lowC,midRight,upLeft,upRight,3,rew_high,z,,,,,0,28,28,16,,,0.6,0.7,exp,m,0,-7.16,-7.16,7.16,-7.16,-10.14,0,10.14,0,-7.16,7.16,7.16,7.16,6,136,31,510,0.8768262999947183,28,29,9,RL,1,F,23,R,2025-04-18_14h20.42.973,RewSL_RL_EEG,
ping,lowC,midRight,DOWN,red,r,lowA,Stimuli\red_bar1.png,Stimuli\red_bar1.png,Stimuli\ping.png,downRight,lowB,midLeft,high,downLeft,upLeft,upRight,3,rew_low,m,,,,,0,29,29,78,,,0.4,0.7,exp,m,1,10.14,0,7.16,-7.16,-10.14,0,-7.16,-7.16,-7.16,7.16,7.16,7.16,6,226,30,511,0.9326907999929972,29,30,9,RL,1,F,23,R,2025-04-18_14h20.42.973,RewSL_RL_EEG,
ping,lowB,midLeft,UP,green,l,lowA,Stimuli\green_bar1.png,Stimuli\green_bar1.png,Stimuli\ping.png,downRight,high,downLeft,lowC,midRight,upLeft,upRight,3,rew_low,z,,,,,0,30,30,73,,,0.5,0.6,exp,None,0,-10.14,0,7.16,-7.16,-7.16,-7.16,10.14,0,-7.16,7.16,7.16,7.16,6,116,30,511,,30,31,9,RL,1,F,23,R,2025-04-18_14h20.42.973,RewSL_RL_EEG,
ping,lowA,downRight,UP,red,l,high,Stimuli\red_bar1.png,Stimuli\red_bar1.png,Stimuli\ping.png,downLeft,lowB,midLeft,lowC,midRight,upLeft,upRight,3,rew_low,z,,,,,0,31,31,48,,,0.5,0.8,exp,None,0,7.16,-7.16,-7.16,-7.16,-10.14,0,10.14,0,-7.16,7.16,7.16,7.16,6,146,30,511,,31,32,9,RL,1,F,23,R,2025-04-18_14h20.42.973,RewSL_RL_EEG,
ping,high,downLeft,DOWN,red,l,lowA,Stimuli\red_bar1.png,Stimuli\red_bar1.png,Stimuli\ping.png,downRight,lowB,midLeft,lowC,midRight,upLeft,upRight,3,rew_high,m,,,,,0,32,32,18,,,0.4,0.8,exp,z,0,-7.16,-7.16,7.16,-7.16,-10.14,0,10.14,0,-7.16,7.16,7.16,7.16,6,236,31,511,0.9985075000004144,32,33,9,RL,1,F,23,R,2025-04-18_14h20.42.973,RewSL_RL_EEG,
ping,lowB,midLeft,DOWN,red,r,lowA,Stimuli\red_bar1.png,Stimuli\red_bar1.png,Stimuli\ping.png,downRight,high,downLeft,lowC,midRight,upLeft,upRight,3,rew_low,m,,,,,0,33,33,62,,,0.4,0.7,exp,z,0,-10.14,0,7.16,-7.16,-7.16,-7.16,10.14,0,-7.16,7.16,7.16,7.16,6,216,30,511,0.8859817000047769,33,34,9,RL,1,F,23,R,2025-04-18_14h20.42.973,RewSL_RL_EEG,
ping,lowC,midRight,UP,green,l,lowA,Stimuli\green_bar1.png,Stimuli\green_bar1.png,Stimuli\ping.png,downRight,lowB,midLeft,high,downLeft,upLeft,upRight,3,rew_low,z,,,,,0,34,34,89,,,0.5,0.7,exp,z,1,10.14,0,7.16,-7.16,-10.14,0,-7.16,-7.16,-7.16,7.16,7.16,7.16,6,126,30,512,0.814628599997377,34,35,9,RL,1,F,23,R,2025-04-18_14h20.42.973,RewSL_RL_EEG,
ping,lowA,downRight,UP,green,l,high,Stimuli\green_bar1.png,Stimuli\green_bar1.png,Stimuli\ping.png,downLeft,lowB,midLeft,lowC,midRight,upLeft,upRight,3,rew_low,z,,,,,0,35,35,41,,,0.4,0.7,exp,None,0,7.16,-7.16,-7.16,-7.16,-10.14,0,10.14,0,-7.16,7.16,7.16,7.16,6,146,30,512,,35,36,9,RL,1,F,23,R,2025-04-18_14h20.42.973,RewSL_RL_EEG,
ping,lowC,midRight,UP,green,l,lowA,Stimuli\green_bar1.png,Stimuli\green_bar1.png,Stimuli\ping.png,downRight,lowB,midLeft,high,downLeft,upLeft,upRight,3,rew_low,z,,,,,0,36,36,81,,,0.5,0.8,exp,z,1,10.14,0,7.16,-7.16,-10.14,0,-7.16,-7.16,-7.16,7.16,7.16,7.16,6,126,30,513,0.7237964000087231,36,37,9,RL,1,F,23,R,2025-04-18_14h20.42.973,RewSL_RL_EEG,
ping,lowB,midLeft,DOWN,red,l,lowA,Stimuli\red_bar1.png,Stimuli\red_bar1.png,Stimuli\ping.png,downRight,high,downLeft,lowC,midRight,upLeft,upRight,3,rew_low,m,,,,,0,37,37,66,,,0.4,0.7,exp,m,1,-10.14,0,7.16,-7.16,-7.16,-7.16,10.14,0,-7.16,7.16,7.16,7.16,6,216,30,514,0.7059569999983069,37,38,9,RL,1,F,23,R,2025-04-18_14h20.42.973,RewSL_RL_EEG,
ping,lowA,downRight,DOWN,red,r,high,Stimuli\red_bar1.png,Stimuli\red_bar1.png,Stimuli\ping.png,downLeft,lowB,midLeft,lowC,midRight,upLeft,upRight,3,rew_low,m,,,,,0,38,38,38,,,0.5,0.6,exp,m,1,7.16,-7.16,-7.16,-7.16,-10.14,0,10.14,0,-7.16,7.16,7.16,7.16,6,246,30,515,1.072846400013077,38,39,9,RL,1,F,23,R,2025-04-18_14h20.42.973,RewSL_RL_EEG,
ping,lowA,downRight,UP,red,r,high,Stimuli\red_bar1.png,Stimuli\red_bar1.png,Stimuli\ping.png,downLeft,lowB,midLeft,lowC,midRight,upLeft,upRight,3,rew_low,z,,,,,0,39,39,44,,,0.5,0.7,exp,m,0,7.16,-7.16,-7.16,-7.16,-10.14,0,10.14,0,-7.16,7.16,7.16,7.16,6,146,30,515,1.084782100006123,39,40,9,RL,1,F,23,R,2025-04-18_14h20.42.973,RewSL_RL_EEG,
ping,lowB,midLeft,UP,green,l,lowA,Stimuli\green_bar1.png,Stimuli\green_bar1.png,Stimuli\ping.png,downRight,high,downLeft,lowC,midRight,upLeft,upRight,3,rew_low,z,,,,,0,40,40,57,,,0.5,0.8,exp,z,1,-10.14,0,7.16,-7.16,-7.16,-7.16,10.14,0,-7.16,7.16,7.16,7.16,6,116,30,516,1.1059688000095775,40,41,9,RL,1,F,23,R,2025-04-18_14h20.42.973,RewSL_RL_EEG,
ping,lowB,midLeft,DOWN,green,l,lowA,Stimuli\green_bar1.png,Stimuli\green_bar1.png,Stimuli\ping.png,downRight,high,downLeft,lowC,midRight,upLeft,upRight,3,rew_low,m,,,,,0,41,41,51,,,0.4,0.7,exp,m,1,-10.14,0,7.16,-7.16,-7.16,-7.16,10.14,0,-7.16,7.16,7.16,7.16,6,216,30,517,0.7693064999912167,41,42,9,RL,1,F,23,R,2025-04-18_14h20.42.973,RewSL_RL_EEG,
ping,high,downLeft,DOWN,green,l,lowA,Stimuli\green_bar1.png,Stimuli\green_bar1.png,Stimuli\ping.png,downRight,lowB,midLeft,lowC,midRight,upLeft,upRight,3,rew_high,m,,,,,0,42,42,11,,,0.6,0.7,exp,m,1,-7.16,-7.16,7.16,-7.16,-10.14,0,10.14,0,-7.16,7.16,7.16,7.16,6,236,31,617,0.8898783000040567,42,43,9,RL,1,F,23,R,2025-04-18_14h20.42.973,RewSL_RL_EEG,
ping,lowA,downRight,UP,green,r,high,Stimuli\green_bar1.png,Stimuli\green_bar1.png,Stimuli\ping.png,downLeft,lowB,midLeft,lowC,midRight,upLeft,upRight,3,rew_low,z,,,,,0,43,43,37,,,0.6,0.6,exp,z,1,7.16,-7.16,-7.16,-7.16,-10.14,0,10.14,0,-7.16,7.16,7.16,7.16,6,146,30,618,0.8363760000065668,43,44,9,RL,1,F,23,R,2025-04-18_14h20.42.973,RewSL_RL_EEG,
ping,lowC,midRight,UP,green,r,lowA,Stimuli\green_bar1.png,Stimuli\green_bar1.png,Stimuli\ping.png,downRight,lowB,midLeft,high,downLeft,upLeft,upRight,3,rew_low,z,,,,,0,44,44,85,,,0.5,0.8,exp,z,1,10.14,0,7.16,-7.16,-10.14,0,-7.16,-7.16,-7.16,7.16,7.16,7.16,6,126,30,619,0.7942349999939324,44,45,9,RL,1,F,23,R,2025-04-18_14h20.42.973,RewSL_RL_EEG,
ping,high,downLeft,UP,green,r,lowA,Stimuli\green_bar1.png,Stimuli\green_bar1.png,Stimuli\ping.png,downRight,lowB,midLeft,lowC,midRight,upLeft,upRight,3,rew_high,z,,,,,0,45,45,21,,,0.5,0.7,exp,z,1,-7.16,-7.16,7.16,-7.16,-10.14,0,10.14,0,-7.16,7.16,7.16,7.16,6,136,31,719,0.7863839999918127,45,46,9,RL,1,F,23,R,2025-04-18_14h20.42.973,RewSL_RL_EEG,
ping,lowA,downRight,UP,green,r,high,Stimuli\green_bar1.png,Stimuli\green_bar1.png,Stimuli\ping.png,downLeft,lowB,midLeft,lowC,midRight,upLeft,upRight,3,rew_low,z,,,,,0,46,46,29,,,0.5,0.7,exp,z,1,7.16,-7.16,-7.16,-7.16,-10.14,0,10.14,0,-7.16,7.16,7.16,7.16,6,146,30,720,0.6270503999985522,46,47,9,RL,1,F,23,R,2025-04-18_14h20.42.973,RewSL_RL_EEG,
ping,lowB,midLeft,UP,red,r,lowA,Stimuli\red_bar1.png,Stimuli\red_bar1.png,Stimuli\ping.png,downRight,high,downLeft,lowC,midRight,upLeft,upRight,3,rew_low,z,,,,,0,47,47,52,,,0.6,0.6,exp,None,0,-10.14,0,7.16,-7.16,-7.16,-7.16,10.14,0,-7.16,7.16,7.16,7.16,6,116,30,720,,47,48,9,RL,1,F,23,R,2025-04-18_14h20.42.973,RewSL_RL_EEG,
ping,high,downLeft,DOWN,red,r,lowA,Stimuli\red_bar1.png,Stimuli\red_bar1.png,Stimuli\ping.png,downRight,lowB,midLeft,lowC,midRight,upLeft,upRight,3,rew_high,m,,,,,0,48,48,6,,,0.4,0.7,exp,m,1,-7.16,-7.16,7.16,-7.16,-10.14,0,10.14,0,-7.16,7.16,7.16,7.16,6,236,31,820,0.6611627000092994,48,49,9,RL,1,F,23,R,2025-04-18_14h20.42.973,RewSL_RL_EEG,
ping,lowC,midRight,DOWN,red,r,lowA,Stimuli\red_bar1.png,Stimuli\red_bar1.png,Stimuli\ping.png,downRight,lowB,midLeft,high,downLeft,upLeft,upRight,3,rew_low,m,,,,,0,49,49,98,,,0.5,0.8,exp,m,1,10.14,0,7.16,-7.16,-10.14,0,-7.16,-7.16,-7.16,7.16,7.16,7.16,6,226,30,821,0.8272643999953289,49,50,9,RL,1,F,23,R,2025-04-18_14h20.42.973,RewSL_RL_EEG,
ping,lowC,midRight,DOWN,green,r,lowA,Stimuli\green_bar1.png,Stimuli\green_bar1.png,Stimuli\ping.png,downRight,lowB,midLeft,high,downLeft,upLeft,upRight,3,rew_low,m,,,,,0,50,50,95,,,0.6,0.8,exp,m,1,10.14,0,7.16,-7.16,-10.14,0,-7.16,-7.16,-7.16,7.16,7.16,7.16,6,226,30,822,0.6399919999967096,50,51,9,RL,1,F,23,R,2025-04-18_14h20.42.973,RewSL_RL_EEG,
ping,lowB,midLeft,UP,red,l,lowA,Stimuli\red_bar1.png,Stimuli\red_bar1.png,Stimuli\ping.png,downRight,high,downLeft,lowC,midRight,upLeft,upRight,3,rew_low,z,,,,,0,51,51,56,,,0.5,0.7,exp,z,1,-10.14,0,7.16,-7.16,-7.16,-7.16,10.14,0,-7.16,7.16,7.16,7.16,6,116,30,823,0.8026543000014499,51,52,9,RL,1,F,23,R,2025-04-18_14h20.42.973,RewSL_RL_EEG,
ping,lowB,midLeft,UP,green,r,lowA,Stimuli\green_bar1.png,Stimuli\green_bar1.png,Stimuli\ping.png,downRight,high,downLeft,lowC,midRight,upLeft,upRight,3,rew_low,z,,,,,0,52,52,69,,,0.5,0.6,exp,z,1,-10.14,0,7.16,-7.16,-7.16,-7.16,10.14,0,-7.16,7.16,7.16,7.16,6,116,30,824,0.7313214999885531,52,53,9,RL,1,F,23,R,2025-04-18_14h20.42.973,RewSL_RL_EEG,
ping,lowA,downRight,UP,red,l,high,Stimuli\red_bar1.png,Stimuli\red_bar1.png,Stimuli\ping.png,downLeft,lowB,midLeft,lowC,midRight,upLeft,upRight,3,rew_low,z,,,,,0,53,53,32,,,0.5,0.6,exp,None,0,7.16,-7.16,-7.16,-7.16,-10.14,0,10.14,0,-7.16,7.16,7.16,7.16,6,146,30,824,,53,54,9,RL,1,F,23,R,2025-04-18_14h20.42.973,RewSL_RL_EEG,
ping,high,downLeft,UP,green,r,lowA,Stimuli\green_bar1.png,Stimuli\green_bar1.png,Stimuli\ping.png,downRight,lowB,midLeft,lowC,midRight,upLeft,upRight,3,rew_high,z,,,,,0,54,54,5,,,0.5,0.8,exp,z,1,-7.16,-7.16,7.16,-7.16,-10.14,0,10.14,0,-7.16,7.16,7.16,7.16,6,136,31,924,0.9144213999970816,54,55,9,RL,1,F,23,R,2025-04-18_14h20.42.973,RewSL_RL_EEG,
ping,high,downLeft,UP,red,r,lowA,Stimuli\red_bar1.png,Stimuli\red_bar1.png,Stimuli\ping.png,downRight,lowB,midLeft,lowC,midRight,upLeft,upRight,3,rew_high,z,,,,,0,55,55,4,,,0.4,0.6,exp,m,0,-7.16,-7.16,7.16,-7.16,-10.14,0,10.14,0,-7.16,7.16,7.16,7.16,6,136,31,924,1.0271460999938427,55,56,9,RL,1,F,23,R,2025-04-18_14h20.42.973,RewSL_RL_EEG,
ping,lowA,downRight,UP,red,l,high,Stimuli\red_bar1.png,Stimuli\red_bar1.png,Stimuli\ping.png,downLeft,lowB,midLeft,lowC,midRight,upLeft,upRight,3,rew_low,z,,,,,0,56,56,40,,,0.5,0.7,exp,m,0,7.16,-7.16,-7.16,-7.16,-10.14,0,10.14,0,-7.16,7.16,7.16,7.16,6,146,30,924,0.8274711999983992,56,57,9,RL,1,F,23,R,2025-04-18_14h20.42.973,RewSL_RL_EEG,
ping,lowC,midRight,DOWN,green,l,lowA,Stimuli\green_bar1.png,Stimuli\green_bar1.png,Stimuli\ping.png,downRight,lowB,midLeft,high,downLeft,upLeft,upRight,3,rew_low,m,,,,,0,57,57,75,,,0.6,0.6,exp,m,1,10.14,0,7.16,-7.16,-10.14,0,-7.16,-7.16,-7.16,7.16,7.16,7.16,6,226,30,925,0.9976005999924382,57,58,9,RL,1,F,23,R,2025-04-18_14h20.42.973,RewSL_RL_EEG,
ping,lowA,downRight,DOWN,red,r,high,Stimuli\red_bar1.png,Stimuli\red_bar1.png,Stimuli\ping.png,downLeft,lowB,midLeft,lowC,midRight,upLeft,upRight,3,rew_low,m,,,,,0,58,58,46,,,0.6,0.7,exp,z,0,7.16,-7.16,-7.16,-7.16,-10.14,0,10.14,0,-7.16,7.16,7.16,7.16,6,246,30,925,0.9099128999951063,58,59,9,RL,1,F,23,R,2025-04-18_14h20.42.973,RewSL_RL_EEG,
ping,lowB,midLeft,UP,red,r,lowA,Stimuli\red_bar1.png,Stimuli\red_bar1.png,Stimuli\ping.png,downRight,high,downLeft,lowC,midRight,upLeft,upRight,3,rew_low,z,,,,,0,59,59,68,,,0.5,0.6,exp,z,1,-10.14,0,7.16,-7.16,-7.16,-7.16,10.14,0,-7.16,7.16,7.16,7.16,6,116,30,926,0.6897212000039872,59,60,9,RL,1,F,23,R,2025-04-18_14h20.42.973,RewSL_RL_EEG,
ping,lowA,downRight,UP,green,l,high,Stimuli\green_bar1.png,Stimuli\green_bar1.png,Stimuli\ping.png,downLeft,lowB,midLeft,lowC,midRight,upLeft,upRight,3,rew_low,z,,,,,0,60,60,33,,,0.5,0.7,exp,m,0,7.16,-7.16,-7.16,-7.16,-10.14,0,10.14,0,-7.16,7.16,7.16,7.16,6,146,30,926,0.7315468000015244,60,61,9,RL,1,F,23,R,2025-04-18_14h20.42.973,RewSL_RL_EEG,
ping,lowA,downRight,DOWN,red,r,high,Stimuli\red_bar1.png,Stimuli\red_bar1.png,Stimuli\ping.png,downLeft,lowB,midLeft,lowC,midRight,upLeft,upRight,3,rew_low,m,,,,,0,61,61,30,,,0.5,0.7,exp,m,1,7.16,-7.16,-7.16,-7.16,-10.14,0,10.14,0,-7.16,7.16,7.16,7.16,6,246,30,927,0.7896406999934698,61,62,9,RL,1,F,23,R,2025-04-18_14h20.42.973,RewSL_RL_EEG,
ping,high,downLeft,UP,red,r,lowA,Stimuli\red_bar1.png,Stimuli\red_bar1.png,Stimuli\ping.png,downRight,lowB,midLeft,lowC,midRight,upLeft,upRight,3,rew_high,z,,,,,0,62,62,20,,,0.4,0.7,exp,z,1,-7.16,-7.16,7.16,-7.16,-10.14,0,10.14,0,-7.16,7.16,7.16,7.16,6,136,31,1027,1.0445416000002297,62,63,9,RL,1,F,23,R,2025-04-18_14h20.42.973,RewSL_RL_EEG,
ping,high,downLeft,DOWN,red,l,lowA,Stimuli\red_bar1.png,Stimuli\red_bar1.png,Stimuli\ping.png,downRight,lowB,midLeft,lowC,midRight,upLeft,upRight,3,rew_high,m,,,,,0,63,63,10,,,0.6,0.8,exp,m,1,-7.16,-7.16,7.16,-7.16,-10.14,0,10.14,0,-7.16,7.16,7.16,7.16,6,236,31,1127,0.7742791000055149,63,64,9,RL,1,F,23,R,2025-04-18_14h20.42.973,RewSL_RL_EEG,
ping,lowC,midRight,DOWN,red,l,lowA,Stimuli\red_bar1.png,Stimuli\red_bar1.png,Stimuli\ping.png,downRight,lowB,midLeft,high,downLeft,upLeft,upRight,3,rew_low,m,,,,,0,64,64,90,,,0.4,0.6,exp,m,1,10.14,0,7.16,-7.16,-10.14,0,-7.16,-7.16,-7.16,7.16,7.16,7.16,6,226,30,1128,0.7679943999974057,64,65,9,RL,1,F,23,R,2025-04-18_14h20.42.973,RewSL_RL_EEG,
ping,lowC,midRight,DOWN,green,l,lowA,Stimuli\green_bar1.png,Stimuli\green_bar1.png,Stimuli\ping.png,downRight,lowB,midLeft,high,downLeft,upLeft,upRight,3,rew_low,m,,,,,0,65,65,91,,,0.4,0.6,exp,m,1,10.14,0,7.16,-7.16,-10.14,0,-7.16,-7.16,-7.16,7.16,7.16,7.16,6,226,30,1129,0.7683811000024434,65,66,9,RL,1,F,23,R,2025-04-18_14h20.42.973,RewSL_RL_EEG,
ping,high,downLeft,DOWN,green,r,lowA,Stimuli\green_bar1.png,Stimuli\green_bar1.png,Stimuli\ping.png,downRight,lowB,midLeft,lowC,midRight,upLeft,upRight,3,rew_high,m,,,,,0,66,66,7,,,0.4,0.7,exp,m,1,-7.16,-7.16,7.16,-7.16,-10.14,0,10.14,0,-7.16,7.16,7.16,7.16,6,236,31,1229,0.7143073000042932,66,67,9,RL,1,F,23,R,2025-04-18_14h20.42.973,RewSL_RL_EEG,
ping,lowC,midRight,UP,green,r,lowA,Stimuli\green_bar1.png,Stimuli\green_bar1.png,Stimuli\ping.png,downRight,lowB,midLeft,high,downLeft,upLeft,upRight,3,rew_low,z,,,,,0,67,67,93,,,0.5,0.7,exp,z,1,10.14,0,7.16,-7.16,-10.14,0,-7.16,-7.16,-7.16,7.16,7.16,7.16,6,126,30,1230,0.8568087000021478,67,68,9,RL,1,F,23,R,2025-04-18_14h20.42.973,RewSL_RL_EEG,
ping,lowC,midRight,DOWN,green,l,lowA,Stimuli\green_bar1.png,Stimuli\green_bar1.png,Stimuli\ping.png,downRight,lowB,midLeft,high,downLeft,upLeft,upRight,3,rew_low,m,,,,,0,68,68,83,,,0.4,0.8,exp,m,1,10.14,0,7.16,-7.16,-10.14,0,-7.16,-7.16,-7.16,7.16,7.16,7.16,6,226,30,1231,0.6233519999950659,68,69,9,RL,1,F,23,R,2025-04-18_14h20.42.973,RewSL_RL_EEG,
ping,lowC,midRight,DOWN,red,r,lowA,Stimuli\red_bar1.png,Stimuli\red_bar1.png,Stimuli\ping.png,downRight,lowB,midLeft,high,downLeft,upLeft,upRight,3,rew_low,m,,,,,0,69,69,94,,,0.4,0.7,exp,m,1,10.14,0,7.16,-7.16,-10.14,0,-7.16,-7.16,-7.16,7.16,7.16,7.16,6,226,30,1232,0.5647326000034809,69,70,9,RL,1,F,23,R,2025-04-18_14h20.42.973,RewSL_RL_EEG,
ping,lowC,midRight,UP,green,r,lowA,Stimuli\green_bar1.png,Stimuli\green_bar1.png,Stimuli\ping.png,downRight,lowB,midLeft,high,downLeft,upLeft,upRight,3,rew_low,z,,,,,0,70,70,77,,,0.5,0.8,exp,m,0,10.14,0,7.16,-7.16,-10.14,0,-7.16,-7.16,-7.16,7.16,7.16,7.16,6,126,30,1232,0.6651299999939511,70,71,9,RL,1,F,23,R,2025-04-18_14h20.42.973,RewSL_RL_EEG,
ping,lowB,midLeft,DOWN,green,r,lowA,Stimuli\green_bar1.png,Stimuli\green_bar1.png,Stimuli\ping.png,downRight,high,downLeft,lowC,midRight,upLeft,upRight,3,rew_low,m,,,,,0,71,71,71,,,0.5,0.8,exp,z,0,-10.14,0,7.16,-7.16,-7.16,-7.16,10.14,0,-7.16,7.16,7.16,7.16,6,216,30,1232,0.9435957999958191,71,72,9,RL,1,F,23,R,2025-04-18_14h20.42.973,RewSL_RL_EEG,
ping,lowA,downRight,UP,green,r,high,Stimuli\green_bar1.png,Stimuli\green_bar1.png,Stimuli\ping.png,downLeft,lowB,midLeft,lowC,midRight,upLeft,upRight,3,rew_low,z,,,,,0,72,72,45,,,0.5,0.6,exp,m,0,7.16,-7.16,-7.16,-7.16,-10.14,0,10.14,0,-7.16,7.16,7.16,7.16,6,146,30,1232,0.6801657000032719,72,73,9,RL,1,F,23,R,2025-04-18_14h20.42.973,RewSL_RL_EEG,
ping,lowB,midLeft,DOWN,red,l,lowA,Stimuli\red_bar1.png,Stimuli\red_bar1.png,Stimuli\ping.png,downRight,high,downLeft,lowC,midRight,upLeft,upRight,3,rew_low,m,,,,,0,73,73,58,,,0.4,0.6,exp,m,1,-10.14,0,7.16,-7.16,-7.16,-7.16,10.14,0,-7.16,7.16,7.16,7.16,6,216,30,1233,0.6644562000001315,73,74,9,RL,1,F,23,R,2025-04-18_14h20.42.973,RewSL_RL_EEG,
ping,lowA,downRight,DOWN,green,r,high,Stimuli\green_bar1.png,Stimuli\green_bar1.png,Stimuli\ping.png,downLeft,lowB,midLeft,lowC,midRight,upLeft,upRight,3,rew_low,m,,,,,0,74,74,47,,,0.6,0.6,exp,z,0,7.16,-7.16,-7.16,-7.16,-10.14,0,10.14,0,-7.16,7.16,7.16,7.16,6,246,30,1233,0.8519502999988617,74,75,9,RL,1,F,23,R,2025-04-18_14h20.42.973,RewSL_RL_EEG,
ping,lowC,midRight,UP,red,l,lowA,Stimuli\red_bar1.png,Stimuli\red_bar1.png,Stimuli\ping.png,downRight,lowB,midLeft,high,downLeft,upLeft,upRight,3,rew_low,z,,,,,0,75,75,80,,,0.6,0.6,exp,z,1,10.14,0,7.16,-7.16,-10.14,0,-7.16,-7.16,-7.16,7.16,7.16,7.16,6,126,30,1234,0.7936622999986866,75,76,9,RL,1,F,23,R,2025-04-18_14h20.42.973,RewSL_RL_EEG,
ping,lowC,midRight,UP,red,r,lowA,Stimuli\red_bar1.png,Stimuli\red_bar1.png,Stimuli\ping.png,downRight,lowB,midLeft,high,downLeft,upLeft,upRight,3,rew_low,z,,,,,0,76,76,92,,,0.4,0.8,exp,z,1,10.14,0,7.16,-7.16,-10.14,0,-7.16,-7.16,-7.16,7.16,7.16,7.16,6,126,30,1235,0.5020807999972021,76,77,9,RL,1,F,23,R,2025-04-18_14h20.42.973,RewSL_RL_EEG,
ping,lowB,midLeft,DOWN,red,l,lowA,Stimuli\red_bar1.png,Stimuli\red_bar1.png,Stimuli\ping.png,downRight,high,downLeft,lowC,midRight,upLeft,upRight,3,rew_low,m,,,,,0,77,77,74,,,0.5,0.8,exp,m,1,-10.14,0,7.16,-7.16,-7.16,-7.16,10.14,0,-7.16,7.16,7.16,7.16,6,216,30,1236,0.9395873999892501,77,78,9,RL,1,F,23,R,2025-04-18_14h20.42.973,RewSL_RL_EEG,
ping,high,downLeft,UP,green,r,lowA,Stimuli\green_bar1.png,Stimuli\green_bar1.png,Stimuli\ping.png,downRight,lowB,midLeft,lowC,midRight,upLeft,upRight,3,rew_high,z,,,,,0,78,78,13,,,0.4,0.7,exp,None,0,-7.16,-7.16,7.16,-7.16,-10.14,0,10.14,0,-7.16,7.16,7.16,7.16,6,136,31,1236,,78,79,9,RL,1,F,23,R,2025-04-18_14h20.42.973,RewSL_RL_EEG,
ping,lowC,midRight,UP,red,l,lowA,Stimuli\red_bar1.png,Stimuli\red_bar1.png,Stimuli\ping.png,downRight,lowB,midLeft,high,downLeft,upLeft,upRight,3,rew_low,z,,,,,0,79,79,88,,,0.5,0.6,exp,z,1,10.14,0,7.16,-7.16,-10.14,0,-7.16,-7.16,-7.16,7.16,7.16,7.16,6,126,30,1237,0.5605294000124559,79,80,9,RL,1,F,23,R,2025-04-18_14h20.42.973,RewSL_RL_EEG,
ping,lowB,midLeft,DOWN,red,l,lowA,Stimuli\red_bar1.png,Stimuli\red_bar1.png,Stimuli\ping.png,downRight,high,downLeft,lowC,midRight,upLeft,upRight,3,rew_low,m,,,,,0,80,80,50,,,0.6,0.8,exp,m,1,-10.14,0,7.16,-7.16,-7.16,-7.16,10.14,0,-7.16,7.16,7.16,7.16,6,216,30,1238,0.7519530999998096,80,81,9,RL,1,F,23,R,2025-04-18_14h20.42.973,RewSL_RL_EEG,
ping,lowC,midRight,UP,red,r,lowA,Stimuli\red_bar1.png,Stimuli\red_bar1.png,Stimuli\ping.png,downRight,lowB,midLeft,high,downLeft,upLeft,upRight,3,rew_low,z,,,,,0,81,81,84,,,0.4,0.6,exp,z,1,10.14,0,7.16,-7.16,-10.14,0,-7.16,-7.16,-7.16,7.16,7.16,7.16,6,126,30,1239,0.7354940999939572,81,82,9,RL,1,F,23,R,2025-04-18_14h20.42.973,RewSL_RL_EEG,
ping,lowC,midRight,UP,red,l,lowA,Stimuli\red_bar1.png,Stimuli\red_bar1.png,Stimuli\ping.png,downRight,lowB,midLeft,high,downLeft,upLeft,upRight,3,rew_low,z,,,,,0,82,82,96,,,0.6,0.8,exp,z,1,10.14,0,7.16,-7.16,-10.14,0,-7.16,-7.16,-7.16,7.16,7.16,7.16,6,126,30,1240,0.6061449999979232,82,83,9,RL,1,F,23,R,2025-04-18_14h20.42.973,RewSL_RL_EEG,
ping,lowC,midRight,UP,red,r,lowA,Stimuli\red_bar1.png,Stimuli\red_bar1.png,Stimuli\ping.png,downRight,lowB,midLeft,high,downLeft,upLeft,upRight,3,rew_low,z,,,,,0,83,83,76,,,0.6,0.6,exp,z,1,10.14,0,7.16,-7.16,-10.14,0,-7.16,-7.16,-7.16,7.16,7.16,7.16,6,126,30,1241,0.5184052999975393,83,84,9,RL,1,F,23,R,2025-04-18_14h20.42.973,RewSL_RL_EEG,
ping,lowB,midLeft,UP,red,l,lowA,Stimuli\red_bar1.png,Stimuli\red_bar1.png,Stimuli\ping.png,downRight,high,downLeft,lowC,midRight,upLeft,upRight,3,rew_low,z,,,,,0,84,84,64,,,0.6,0.7,exp,z,1,-10.14,0,7.16,-7.16,-7.16,-7.16,10.14,0,-7.16,7.16,7.16,7.16,6,116,30,1242,0.7021873000048799,84,85,9,RL,1,F,23,R,2025-04-18_14h20.42.973,RewSL_RL_EEG,
ping,lowC,midRight,DOWN,red,r,lowA,Stimuli\red_bar1.png,Stimuli\red_bar1.png,Stimuli\ping.png,downRight,lowB,midLeft,high,downLeft,upLeft,upRight,3,rew_low,m,,,,,0,85,85,86,,,0.4,0.7,exp,m,1,10.14,0,7.16,-7.16,-10.14,0,-7.16,-7.16,-7.16,7.16,7.16,7.16,6,226,30,1243,0.6068622000020696,85,86,9,RL,1,F,23,R,2025-04-18_14h20.42.973,RewSL_RL_EEG,
ping,high,downLeft,UP,red,l,lowA,Stimuli\red_bar1.png,Stimuli\red_bar1.png,Stimuli\ping.png,downRight,lowB,midLeft,lowC,midRight,upLeft,upRight,3,rew_high,z,,,,,0,86,86,8,,,0.5,0.6,exp,z,1,-7.16,-7.16,7.16,-7.16,-10.14,0,10.14,0,-7.16,7.16,7.16,7.16,6,136,31,1343,0.7014592999912566,86,87,9,RL,1,F,23,R,2025-04-18_14h20.42.973,RewSL_RL_EEG,
ping,high,downLeft,DOWN,red,l,lowA,Stimuli\red_bar1.png,Stimuli\red_bar1.png,Stimuli\ping.png,downRight,lowB,midLeft,lowC,midRight,upLeft,upRight,3,rew_high,m,,,,,0,87,87,2,,,0.5,0.7,exp,z,0,-7.16,-7.16,7.16,-7.16,-10.14,0,10.14,0,-7.16,7.16,7.16,7.16,6,236,31,1343,0.7281207999913022,87,88,9,RL,1,F,23,R,2025-04-18_14h20.42.973,RewSL_RL_EEG,
ping,lowC,midRight,DOWN,green,r,lowA,Stimuli\green_bar1.png,Stimuli\green_bar1.png,Stimuli\ping.png,downRight,lowB,midLeft,high,downLeft,upLeft,upRight,3,rew_low,m,,,,,0,88,88,79,,,0.5,0.8,exp,m,1,10.14,0,7.16,-7.16,-10.14,0,-7.16,-7.16,-7.16,7.16,7.16,7.16,6,226,30,1344,0.7696433999954024,88,89,9,RL,1,F,23,R,2025-04-18_14h20.42.973,RewSL_RL_EEG,
ping,lowB,midLeft,DOWN,red,r,lowA,Stimuli\red_bar1.png,Stimuli\red_bar1.png,Stimuli\ping.png,downRight,high,downLeft,lowC,midRight,upLeft,upRight,3,rew_low,m,,,,,0,89,89,54,,,0.5,0.8,exp,m,1,-10.14,0,7.16,-7.16,-7.16,-7.16,10.14,0,-7.16,7.16,7.16,7.16,6,216,30,1345,0.6767669999971986,89,90,9,RL,1,F,23,R,2025-04-18_14h20.42.973,RewSL_RL_EEG,
ping,lowA,downRight,DOWN,green,l,high,Stimuli\green_bar1.png,Stimuli\green_bar1.png,Stimuli\ping.png,downLeft,lowB,midLeft,lowC,midRight,upLeft,upRight,3,rew_low,m,,,,,0,90,90,35,,,0.5,0.7,exp,m,1,7.16,-7.16,-7.16,-7.16,-10.14,0,10.14,0,-7.16,7.16,7.16,7.16,6,246,30,1346,1.0855105000082403,90,91,9,RL,1,F,23,R,2025-04-18_14h20.42.973,RewSL_RL_EEG,
ping,lowB,midLeft,UP,green,r,lowA,Stimuli\green_bar1.png,Stimuli\green_bar1.png,Stimuli\ping.png,downRight,high,downLeft,lowC,midRight,upLeft,upRight,3,rew_low,z,,,,,0,91,91,61,,,0.4,0.7,exp,z,1,-10.14,0,7.16,-7.16,-7.16,-7.16,10.14,0,-7.16,7.16,7.16,7.16,6,116,30,1347,0.6642615999880945,91,92,9,RL,1,F,23,R,2025-04-18_14h20.42.973,RewSL_RL_EEG,
ping,lowA,downRight,UP,red,r,high,Stimuli\red_bar1.png,Stimuli\red_bar1.png,Stimuli\ping.png,downLeft,lowB,midLeft,lowC,midRight,upLeft,upRight,3,rew_low,z,,,,,0,92,92,28,,,0.5,0.6,exp,z,1,7.16,-7.16,-7.16,-7.16,-10.14,0,10.14,0,-7.16,7.16,7.16,7.16,6,146,30,1348,0.7601770000037504,92,93,9,RL,1,F,23,R,2025-04-18_14h20.42.973,RewSL_RL_EEG,
ping,lowA,downRight,UP,red,r,high,Stimuli\red_bar1.png,Stimuli\red_bar1.png,Stimuli\ping.png,downLeft,lowB,midLeft,lowC,midRight,upLeft,upRight,3,rew_low,z,,,,,0,93,93,36,,,0.5,0.7,exp,z,1,7.16,-7.16,-7.16,-7.16,-10.14,0,10.14,0,-7.16,7.16,7.16,7.16,6,146,30,1349,0.7888192999962484,93,94,9,RL,1,F,23,R,2025-04-18_14h20.42.973,RewSL_RL_EEG,
ping,lowB,midLeft,UP,red,r,lowA,Stimuli\red_bar1.png,Stimuli\red_bar1.png,Stimuli\ping.png,downRight,high,downLeft,lowC,midRight,upLeft,upRight,3,rew_low,z,,,,,0,94,94,60,,,0.5,0.7,exp,z,1,-10.14,0,7.16,-7.16,-7.16,-7.16,10.14,0,-7.16,7.16,7.16,7.16,6,116,30,1350,0.6814242999971611,94,95,9,RL,1,F,23,R,2025-04-18_14h20.42.973,RewSL_RL_EEG,
ping,lowB,midLeft,UP,green,r,lowA,Stimuli\green_bar1.png,Stimuli\green_bar1.png,Stimuli\ping.png,downRight,high,downLeft,lowC,midRight,upLeft,upRight,3,rew_low,z,,,,,0,95,95,53,,,0.4,0.7,exp,m,0,-10.14,0,7.16,-7.16,-7.16,-7.16,10.14,0,-7.16,7.16,7.16,7.16,6,116,30,1350,0.8979544000030728,95,96,9,RL,1,F,23,R,2025-04-18_14h20.42.973,RewSL_RL_EEG,
ping,high,downLeft,UP,red,r,lowA,Stimuli\red_bar1.png,Stimuli\red_bar1.png,Stimuli\ping.png,downRight,lowB,midLeft,lowC,midRight,upLeft,upRight,3,rew_high,z,,,,,0,96,96,12,,,0.4,0.7,exp,None,0,-7.16,-7.16,7.16,-7.16,-10.14,0,10.14,0,-7.16,7.16,7.16,7.16,6,136,31,1350,,96,97,9,RL,1,F,23,R,2025-04-18_14h20.42.973,RewSL_RL_EEG,
ping,lowC,midRight,DOWN,red,l,lowA,Stimuli\red_bar1.png,Stimuli\red_bar1.png,Stimuli\ping.png,downRight,lowB,midLeft,high,downLeft,upLeft,upRight,3,rew_low,m,,,,,0,97,97,82,,,0.4,0.7,exp,m,1,10.14,0,7.16,-7.16,-10.14,0,-7.16,-7.16,-7.16,7.16,7.16,7.16,6,226,30,1351,0.5608984999998938,97,98,9,RL,1,F,23,R,2025-04-18_14h20.42.973,RewSL_RL_EEG,
ping,lowB,midLeft,UP,green,l,lowA,Stimuli\green_bar1.png,Stimuli\green_bar1.png,Stimuli\ping.png,downRight,high,downLeft,lowC,midRight,upLeft,upRight,3,rew_low,z,,,,,0,98,98,65,,,0.5,0.7,exp,z,1,-10.14,0,7.16,-7.16,-7.16,-7.16,10.14,0,-7.16,7.16,7.16,7.16,6,116,30,1352,0.5855772999930196,98,99,9,RL,1,F,23,R,2025-04-18_14h20.42.973,RewSL_RL_EEG,
ping,high,downLeft,UP,green,l,lowA,Stimuli\green_bar1.png,Stimuli\green_bar1.png,Stimuli\ping.png,downRight,lowB,midLeft,lowC,midRight,upLeft,upRight,3,rew_high,z,,,,,0,99,99,9,,,0.5,0.7,exp,m,0,-7.16,-7.16,7.16,-7.16,-10.14,0,10.14,0,-7.16,7.16,7.16,7.16,6,136,31,1352,0.8813574000087101,99,100,9,RL,1,F,23,R,2025-04-18_14h20.42.973,RewSL_RL_EEG,
ping,high,downRight,UP,green,r,lowA,Stimuli\green_bar1.png,Stimuli\green_bar1.png,Stimuli\ping.png,downLeft,lowB,midRight,lowC,midLeft,upLeft,upRight,4,rew_high,z,,,,,0,0,0,13,,,0.6,0.7,exp,m,0,7.16,-7.16,-7.16,-7.16,10.14,0,-10.14,0,-7.16,7.16,7.16,7.16,8,148,31,1352,0.6853247999970336,100,101,9,RL,1,F,23,R,2025-04-18_14h20.42.973,RewSL_RL_EEG,
ping,lowC,midLeft,DOWN,green,r,lowA,Stimuli\green_bar1.png,Stimuli\green_bar1.png,Stimuli\ping.png,downLeft,lowB,midRight,high,downRight,upLeft,upRight,4,rew_low,m,,,,,0,1,1,95,,,0.4,0.7,exp,m,1,-10.14,0,-7.16,-7.16,10.14,0,7.16,-7.16,-7.16,7.16,7.16,7.16,8,218,30,1353,0.8234966000018176,101,102,9,RL,1,F,23,R,2025-04-18_14h20.42.973,RewSL_RL_EEG,
ping,lowA,downLeft,DOWN,green,l,high,Stimuli\green_bar1.png,Stimuli\green_bar1.png,Stimuli\ping.png,downRight,lowB,midRight,lowC,midLeft,upLeft,upRight,4,rew_low,m,,,,,0,2,2,27,,,0.5,0.7,exp,z,0,-7.16,-7.16,7.16,-7.16,10.14,0,-10.14,0,-7.16,7.16,7.16,7.16,8,238,30,1353,0.6224851000006311,102,103,9,RL,1,F,23,R,2025-04-18_14h20.42.973,RewSL_RL_EEG,
ping,lowB,midRight,DOWN,red,l,lowA,Stimuli\red_bar1.png,Stimuli\red_bar1.png,Stimuli\ping.png,downLeft,high,downRight,lowC,midLeft,upLeft,upRight,4,rew_low,m,,,,,0,3,3,58,,,0.6,0.6,exp,m,1,10.14,0,-7.16,-7.16,7.16,-7.16,-10.14,0,-7.16,7.16,7.16,7.16,8,228,30,1354,0.5984278999967501,103,104,9,RL,1,F,23,R,2025-04-18_14h20.42.973,RewSL_RL_EEG,
ping,high,downRight,UP,red,l,lowA,Stimuli\red_bar1.png,Stimuli\red_bar1.png,Stimuli\ping.png,downLeft,lowB,midRight,lowC,midLeft,upLeft,upRight,4,rew_high,z,,,,,0,4,4,16,,,0.6,0.6,exp,z,1,7.16,-7.16,-7.16,-7.16,10.14,0,-10.14,0,-7.16,7.16,7.16,7.16,8,148,31,1454,0.7818168999947375,104,105,9,RL,1,F,23,R,2025-04-18_14h20.42.973,RewSL_RL_EEG,
ping,high,downRight,DOWN,red,l,lowA,Stimuli\red_bar1.png,Stimuli\red_bar1.png,Stimuli\ping.png,downLeft,lowB,midRight,lowC,midLeft,upLeft,upRight,4,rew_high,m,,,,,0,5,5,18,,,0.5,0.7,exp,m,1,7.16,-7.16,-7.16,-7.16,10.14,0,-10.14,0,-7.16,7.16,7.16,7.16,8,248,31,1554,0.7077194000012241,105,106,9,RL,1,F,23,R,2025-04-18_14h20.42.973,RewSL_RL_EEG,
ping,high,downRight,UP,red,r,lowA,Stimuli\red_bar1.png,Stimuli\red_bar1.png,Stimuli\ping.png,downLeft,lowB,midRight,lowC,midLeft,upLeft,upRight,4,rew_high,z,,,,,0,6,6,12,,,0.4,0.7,exp,z,1,7.16,-7.16,-7.16,-7.16,10.14,0,-10.14,0,-7.16,7.16,7.16,7.16,8,148,31,1654,0.7689474999933736,106,107,9,RL,1,F,23,R,2025-04-18_14h20.42.973,RewSL_RL_EEG,
ping,lowC,midLeft,DOWN,red,r,lowA,Stimuli\red_bar1.png,Stimuli\red_bar1.png,Stimuli\ping.png,downLeft,lowB,midRight,high,downRight,upLeft,upRight,4,rew_low,m,,,,,0,7,7,86,,,0.6,0.6,exp,m,1,-10.14,0,-7.16,-7.16,10.14,0,7.16,-7.16,-7.16,7.16,7.16,7.16,8,218,30,1655,0.8556652999977814,107,108,9,RL,1,F,23,R,2025-04-18_14h20.42.973,RewSL_RL_EEG,
ping,high,downRight,DOWN,green,r,lowA,Stimuli\green_bar1.png,Stimuli\green_bar1.png,Stimuli\ping.png,downLeft,lowB,midRight,lowC,midLeft,upLeft,upRight,4,rew_high,m,,,,,0,8,8,23,,,0.4,0.7,exp,m,1,7.16,-7.16,-7.16,-7.16,10.14,0,-10.14,0,-7.16,7.16,7.16,7.16,8,248,31,1755,0.7597608999931253,108,109,9,RL,1,F,23,R,2025-04-18_14h20.42.973,RewSL_RL_EEG,
ping,lowA,downLeft,UP,red,l,high,Stimuli\red_bar1.png,Stimuli\red_bar1.png,Stimuli\ping.png,downRight,lowB,midRight,lowC,midLeft,upLeft,upRight,4,rew_low,z,,,,,0,9,9,32,,,0.5,0.8,exp,z,1,-7.16,-7.16,7.16,-7.16,10.14,0,-10.14,0,-7.16,7.16,7.16,7.16,8,138,30,1756,0.8986007000057725,109,110,9,RL,1,F,23,R,2025-04-18_14h20.42.973,RewSL_RL_EEG,
ping,lowB,midRight,UP,red,r,lowA,Stimuli\red_bar1.png,Stimuli\red_bar1.png,Stimuli\ping.png,downLeft,high,downRight,lowC,midLeft,upLeft,upRight,4,rew_low,z,,,,,0,10,10,68,,,0.5,0.7,exp,m,0,10.14,0,-7.16,-7.16,7.16,-7.16,-10.14,0,-7.16,7.16,7.16,7.16,8,128,30,1756,0.7101282000076026,110,111,9,RL,1,F,23,R,2025-04-18_14h20.42.973,RewSL_RL_EEG,
ping,lowB,midRight,DOWN,red,r,lowA,Stimuli\red_bar1.png,Stimuli\red_bar1.png,Stimuli\ping.png,downLeft,high,downRight,lowC,midLeft,upLeft,upRight,4,rew_low,m,,,,,0,11,11,54,,,0.5,0.7,exp,m,1,10.14,0,-7.16,-7.16,7.16,-7.16,-10.14,0,-7.16,7.16,7.16,7.16,8,228,30,1757,0.623045500004082,111,112,9,RL,1,F,23,R,2025-04-18_14h20.42.973,RewSL_RL_EEG,
ping,high,downRight,UP,green,l,lowA,Stimuli\green_bar1.png,Stimuli\green_bar1.png,Stimuli\ping.png,downLeft,lowB,midRight,lowC,midLeft,upLeft,upRight,4,rew_high,z,,,,,0,12,12,17,,,0.5,0.7,exp,z,1,7.16,-7.16,-7.16,-7.16,10.14,0,-10.14,0,-7.16,7.16,7.16,7.16,8,148,31,1857,1.2520158999977866,112,113,9,RL,1,F,23,R,2025-04-18_14h20.42.973,RewSL_RL_EEG,
ping,lowA,downLeft,DOWN,red,r,high,Stimuli\red_bar1.png,Stimuli\red_bar1.png,Stimuli\ping.png,downRight,lowB,midRight,lowC,midLeft,upLeft,upRight,4,rew_low,m,,,,,0,13,13,46,,,0.5,0.6,exp,z,0,-7.16,-7.16,7.16,-7.16,10.14,0,-10.14,0,-7.16,7.16,7.16,7.16,8,238,30,1857,0.7893779000005452,113,114,9,RL,1,F,23,R,2025-04-18_14h20.42.973,RewSL_RL_EEG,
ping,lowB,midRight,UP,green,l,lowA,Stimuli\green_bar1.png,Stimuli\green_bar1.png,Stimuli\ping.png,downLeft,high,downRight,lowC,midLeft,upLeft,upRight,4,rew_low,z,,,,,0,14,14,57,,,0.4,0.8,exp,z,1,10.14,0,-7.16,-7.16,7.16,-7.16,-10.14,0,-7.16,7.16,7.16,7.16,8,128,30,1858,0.5609680999914417,114,115,9,RL,1,F,23,R,2025-04-18_14h20.42.973,RewSL_RL_EEG,
ping,high,downRight,UP,green,r,lowA,Stimuli\green_bar1.png,Stimuli\green_bar1.png,Stimuli\ping.png,downLeft,lowB,midRight,lowC,midLeft,upLeft,upRight,4,rew_high,z,,,,,0,15,15,21,,,0.5,0.7,exp,z,1,7.16,-7.16,-7.16,-7.16,10.14,0,-10.14,0,-7.16,7.16,7.16,7.16,8,148,31,1958,0.7767257999948924,115,116,9,RL,1,F,23,R,2025-04-18_14h20.42.973,RewSL_RL_EEG,
ping,lowB,midRight,UP,red,l,lowA,Stimuli\red_bar1.png,Stimuli\red_bar1.png,Stimuli\ping.png,downLeft,high,downRight,lowC,midLeft,upLeft,upRight,4,rew_low,z,,,,,0,16,16,64,,,0.6,0.7,exp,z,1,10.14,0,-7.16,-7.16,7.16,-7.16,-10.14,0,-7.16,7.16,7.16,7.16,8,128,30,1959,0.4931769999966491,116,117,9,RL,1,F,23,R,2025-04-18_14h20.42.973,RewSL_RL_EEG,
ping,lowB,midRight,UP,green,l,lowA,Stimuli\green_bar1.png,Stimuli\green_bar1.png,Stimuli\ping.png,downLeft,high,downRight,lowC,midLeft,upLeft,upRight,4,rew_low,z,,,,,0,17,17,73,,,0.6,0.8,exp,z,1,10.14,0,-7.16,-7.16,7.16,-7.16,-10.14,0,-7.16,7.16,7.16,7.16,8,128,30,1960,0.4934979999961797,117,118,9,RL,1,F,23,R,2025-04-18_14h20.42.973,RewSL_RL_EEG,
ping,lowC,midLeft,UP,red,l,lowA,Stimuli\red_bar1.png,Stimuli\red_bar1.png,Stimuli\ping.png,downLeft,lowB,midRight,high,downRight,upLeft,upRight,4,rew_low,z,,,,,0,18,18,88,,,0.5,0.8,exp,z,1,-10.14,0,-7.16,-7.16,10.14,0,7.16,-7.16,-7.16,7.16,7.16,7.16,8,118,30,1961,0.9896241999958875,118,119,9,RL,1,F,23,R,2025-04-18_14h20.42.973,RewSL_RL_EEG,
ping,lowA,downLeft,UP,green,l,high,Stimuli\green_bar1.png,Stimuli\green_bar1.png,Stimuli\ping.png,downRight,lowB,midRight,lowC,midLeft,upLeft,upRight,4,rew_low,z,,,,,0,19,19,33,,,0.6,0.7,exp,z,1,-7.16,-7.16,7.16,-7.16,10.14,0,-10.14,0,-7.16,7.16,7.16,7.16,8,138,30,1962,0.9353139000013471,119,120,9,RL,1,F,23,R,2025-04-18_14h20.42.973,RewSL_RL_EEG,
ping,lowC,midLeft,DOWN,green,r,lowA,Stimuli\green_bar1.png,Stimuli\green_bar1.png,Stimuli\ping.png,downLeft,lowB,midRight,high,downRight,upLeft,upRight,4,rew_low,m,,,,,0,20,20,99,,,0.4,0.6,exp,m,1,-10.14,0,-7.16,-7.16,10.14,0,7.16,-7.16,-7.16,7.16,7.16,7.16,8,218,30,1963,0.8437369000021135,120,121,9,RL,1,F,23,R,2025-04-18_14h20.42.973,RewSL_RL_EEG,
ping,high,downRight,UP,red,l,lowA,Stimuli\red_bar1.png,Stimuli\red_bar1.png,Stimuli\ping.png,downLeft,lowB,midRight,lowC,midLeft,upLeft,upRight,4,rew_high,z,,,,,0,21,21,24,,,0.5,0.7,exp,z,1,7.16,-7.16,-7.16,-7.16,10.14,0,-10.14,0,-7.16,7.16,7.16,7.16,8,148,31,2063,1.2317301000002772,121,122,9,RL,1,F,23,R,2025-04-18_14h20.42.973,RewSL_RL_EEG,
ping,high,downRight,DOWN,green,l,lowA,Stimuli\green_bar1.png,Stimuli\green_bar1.png,Stimuli\ping.png,downLeft,lowB,midRight,lowC,midLeft,upLeft,upRight,4,rew_high,m,,,,,0,22,22,3,,,0.4,0.6,exp,m,1,7.16,-7.16,-7.16,-7.16,10.14,0,-10.14,0,-7.16,7.16,7.16,7.16,8,248,31,2163,0.9015915999916615,122,123,9,RL,1,F,23,R,2025-04-18_14h20.42.973,RewSL_RL_EEG,
ping,high,downRight,DOWN,red,l,lowA,Stimuli\red_bar1.png,Stimuli\red_bar1.png,Stimuli\ping.png,downLeft,lowB,midRight,lowC,midLeft,upLeft,upRight,4,rew_high,m,,,,,0,23,23,2,,,0.6,0.8,exp,z,0,7.16,-7.16,-7.16,-7.16,10.14,0,-10.14,0,-7.16,7.16,7.16,7.16,8,248,31,2163,0.8100272000010591,123,124,9,RL,1,F,23,R,2025-04-18_14h20.42.973,RewSL_RL_EEG,
ping,high,downRight,UP,red,r,lowA,Stimuli\red_bar1.png,Stimuli\red_bar1.png,Stimuli\ping.png,downLeft,lowB,midRight,lowC,midLeft,upLeft,upRight,4,rew_high,z,,,,,0,24,24,4,,,0.5,0.7,exp,z,1,7.16,-7.16,-7.16,-7.16,10.14,0,-10.14,0,-7.16,7.16,7.16,7.16,8,148,31,2263,0.7442065000068396,124,125,9,RL,1,F,23,R,2025-04-18_14h20.42.973,RewSL_RL_EEG,
ping,lowC,midLeft,UP,red,r,lowA,Stimuli\red_bar1.png,Stimuli\red_bar1.png,Stimuli\ping.png,downLeft,lowB,midRight,high,downRight,upLeft,upRight,4,rew_low,z,,,,,0,25,25,84,,,0.4,0.7,exp,z,1,-10.14,0,-7.16,-7.16,10.14,0,7.16,-7.16,-7.16,7.16,7.16,7.16,8,118,30,2264,1.1023087999928975,125,126,9,RL,1,F,23,R,2025-04-18_14h20.42.973,RewSL_RL_EEG,
ping,high,downRight,UP,red,l,lowA,Stimuli\red_bar1.png,Stimuli\red_bar1.png,Stimuli\ping.png,downLeft,lowB,midRight,lowC,midLeft,upLeft,upRight,4,rew_high,z,,,,,0,26,26,8,,,0.4,0.7,exp,z,1,7.16,-7.16,-7.16,-7.16,10.14,0,-10.14,0,-7.16,7.16,7.16,7.16,8,148,31,2364,1.0857843000121647,126,127,9,RL,1,F,23,R,2025-04-18_14h20.42.973,RewSL_RL_EEG,
ping,lowC,midLeft,UP,green,l,lowA,Stimuli\green_bar1.png,Stimuli\green_bar1.png,Stimuli\ping.png,downLeft,lowB,midRight,high,downRight,upLeft,upRight,4,rew_low,z,,,,,0,27,27,81,,,0.5,0.8,exp,z,1,-10.14,0,-7.16,-7.16,10.14,0,7.16,-7.16,-7.16,7.16,7.16,7.16,8,118,30,2365,1.1528524999885121,127,128,9,RL,1,F,23,R,2025-04-18_14h20.42.973,RewSL_RL_EEG,
ping,lowA,downLeft,UP,green,r,high,Stimuli\green_bar1.png,Stimuli\green_bar1.png,Stimuli\ping.png,downRight,lowB,midRight,lowC,midLeft,upLeft,upRight,4,rew_low,z,,,,,0,28,28,45,,,0.6,0.8,exp,z,1,-7.16,-7.16,7.16,-7.16,10.14,0,-10.14,0,-7.16,7.16,7.16,7.16,8,138,30,2366,0.8158791000023484,128,129,9,RL,1,F,23,R,2025-04-18_14h20.42.973,RewSL_RL_EEG,
ping,lowC,midLeft,DOWN,green,r,lowA,Stimuli\green_bar1.png,Stimuli\green_bar1.png,Stimuli\ping.png,downLeft,lowB,midRight,high,downRight,upLeft,upRight,4,rew_low,m,,,,,0,29,29,79,,,0.4,0.6,exp,m,1,-10.14,0,-7.16,-7.16,10.14,0,7.16,-7.16,-7.16,7.16,7.16,7.16,8,218,30,2367,1.1067140999948606,129,130,9,RL,1,F,23,R,2025-04-18_14h20.42.973,RewSL_RL_EEG,
ping,lowB,midRight,DOWN,red,l,lowA,Stimuli\red_bar1.png,Stimuli\red_bar1.png,Stimuli\ping.png,downLeft,high,downRight,lowC,midLeft,upLeft,upRight,4,rew_low,m,,,,,0,30,30,74,,,0.4,0.7,exp,m,1,10.14,0,-7.16,-7.16,7.16,-7.16,-10.14,0,-7.16,7.16,7.16,7.16,8,228,30,2368,0.6229123000084655,130,131,9,RL,1,F,23,R,2025-04-18_14h20.42.973,RewSL_RL_EEG,
ping,lowA,downLeft,DOWN,red,l,high,Stimuli\red_bar1.png,Stimuli\red_bar1.png,Stimuli\ping.png,downRight,lowB,midRight,lowC,midLeft,upLeft,upRight,4,rew_low,m,,,,,0,31,31,34,,,0.5,0.8,exp,m,1,-7.16,-7.16,7.16,-7.16,10.14,0,-10.14,0,-7.16,7.16,7.16,7.16,8,238,30,2369,0.922031900001457,131,132,9,RL,1,F,23,R,2025-04-18_14h20.42.973,RewSL_RL_EEG,
ping,high,downRight,DOWN,red,r,lowA,Stimuli\red_bar1.png,Stimuli\red_bar1.png,Stimuli\ping.png,downLeft,lowB,midRight,lowC,midLeft,upLeft,upRight,4,rew_high,m,,,,,0,32,32,22,,,0.6,0.7,exp,m,1,7.16,-7.16,-7.16,-7.16,10.14,0,-10.14,0,-7.16,7.16,7.16,7.16,8,248,31,2469,0.6976308000012068,132,133,9,RL,1,F,23,R,2025-04-18_14h20.42.973,RewSL_RL_EEG,
ping,lowA,downLeft,UP,red,r,high,Stimuli\red_bar1.png,Stimuli\red_bar1.png,Stimuli\ping.png,downRight,lowB,midRight,lowC,midLeft,upLeft,upRight,4,rew_low,z,,,,,0,33,33,36,,,0.5,0.6,exp,z,1,-7.16,-7.16,7.16,-7.16,10.14,0,-10.14,0,-7.16,7.16,7.16,7.16,8,138,30,2470,0.6315228000021307,133,134,9,RL,1,F,23,R,2025-04-18_14h20.42.973,RewSL_RL_EEG,
ping,high,downRight,DOWN,red,r,lowA,Stimuli\red_bar1.png,Stimuli\red_bar1.png,Stimuli\ping.png,downLeft,lowB,midRight,lowC,midLeft,upLeft,upRight,4,rew_high,m,,,,,0,34,34,14,,,0.4,0.6,exp,z,0,7.16,-7.16,-7.16,-7.16,10.14,0,-10.14,0,-7.16,7.16,7.16,7.16,8,248,31,2470,0.6815381000051275,134,135,9,RL,1,F,23,R,2025-04-18_14h20.42.973,RewSL_RL_EEG,
ping,lowB,midRight,UP,green,l,lowA,Stimuli\green_bar1.png,Stimuli\green_bar1.png,Stimuli\ping.png,downLeft,high,downRight,lowC,midLeft,upLeft,upRight,4,rew_low,z,,,,,0,35,35,65,,,0.5,0.8,exp,m,0,10.14,0,-7.16,-7.16,7.16,-7.16,-10.14,0,-7.16,7.16,7.16,7.16,8,128,30,2470,1.0516744999913499,135,136,9,RL,1,F,23,R,2025-04-18_14h20.42.973,RewSL_RL_EEG,
ping,high,downRight,DOWN,green,l,lowA,Stimuli\green_bar1.png,Stimuli\green_bar1.png,Stimuli\ping.png,downLeft,lowB,midRight,lowC,midLeft,upLeft,upRight,4,rew_high,m,,,,,0,36,36,11,,,0.5,0.8,exp,m,1,7.16,-7.16,-7.16,-7.16,10.14,0,-10.14,0,-7.16,7.16,7.16,7.16,8,248,31,2570,0.7977822000102606,136,137,9,RL,1,F,23,R,2025-04-18_14h20.42.973,RewSL_RL_EEG,
ping,high,downRight,UP,green,l,lowA,Stimuli\green_bar1.png,Stimuli\green_bar1.png,Stimuli\ping.png,downLeft,lowB,midRight,lowC,midLeft,upLeft,upRight,4,rew_high,z,,,,,0,37,37,9,,,0.6,0.7,exp,z,1,7.16,-7.16,-7.16,-7.16,10.14,0,-10.14,0,-7.16,7.16,7.16,7.16,8,148,31,2670,0.7105222000100184,137,138,9,RL,1,F,23,R,2025-04-18_14h20.42.973,RewSL_RL_EEG,
ping,high,downRight,DOWN,red,r,lowA,Stimuli\red_bar1.png,Stimuli\red_bar1.png,Stimuli\ping.png,downLeft,lowB,midRight,lowC,midLeft,upLeft,upRight,4,rew_high,m,,,,,0,38,38,6,,,0.4,0.6,exp,m,1,7.16,-7.16,-7.16,-7.16,10.14,0,-10.14,0,-7.16,7.16,7.16,7.16,8,248,31,2770,1.081220599997323,138,139,9,RL,1,F,23,R,2025-04-18_14h20.42.973,RewSL_RL_EEG,
ping,lowB,midRight,UP,red,l,lowA,Stimuli\red_bar1.png,Stimuli\red_bar1.png,Stimuli\ping.png,downLeft,high,downRight,lowC,midLeft,upLeft,upRight,4,rew_low,z,,,,,0,39,39,72,,,0.5,0.7,exp,z,1,10.14,0,-7.16,-7.16,7.16,-7.16,-10.14,0,-7.16,7.16,7.16,7.16,8,128,30,2771,0.772254299998167,139,140,9,RL,1,F,23,R,2025-04-18_14h20.42.973,RewSL_RL_EEG,
ping,lowA,downLeft,UP,green,r,high,Stimuli\green_bar1.png,Stimuli\green_bar1.png,Stimuli\ping.png,downRight,lowB,midRight,lowC,midLeft,upLeft,upRight,4,rew_low,z,,,,,0,40,40,37,,,0.5,0.7,exp,z,1,-7.16,-7.16,7.16,-7.16,10.14,0,-10.14,0,-7.16,7.16,7.16,7.16,8,138,30,2772,0.7142536000028485,140,141,9,RL,1,F,23,R,2025-04-18_14h20.42.973,RewSL_RL_EEG,
ping,lowB,midRight,UP,red,r,lowA,Stimuli\red_bar1.png,Stimuli\red_bar1.png,Stimuli\ping.png,downLeft,high,downRight,lowC,midLeft,upLeft,upRight,4,rew_low,z,,,,,0,41,41,60,,,0.4,0.7,exp,z,1,10.14,0,-7.16,-7.16,7.16,-7.16,-10.14,0,-7.16,7.16,7.16,7.16,8,128,30,2773,0.6525759999931324,141,142,9,RL,1,F,23,R,2025-04-18_14h20.42.973,RewSL_RL_EEG,
ping,high,downRight,DOWN,green,r,lowA,Stimuli\green_bar1.png,Stimuli\green_bar1.png,Stimuli\ping.png,downLeft,lowB,midRight,lowC,midLeft,upLeft,upRight,4,rew_high,m,,,,,0,42,42,15,,,0.6,0.7,exp,m,1,7.16,-7.16,-7.16,-7.16,10.14,0,-10.14,0,-7.16,7.16,7.16,7.16,8,248,31,2873,0.7318864999979269,142,143,9,RL,1,F,23,R,2025-04-18_14h20.42.973,RewSL_RL_EEG,
ping,high,downRight,UP,green,l,lowA,Stimuli\green_bar1.png,Stimuli\green_bar1.png,Stimuli\ping.png,downLeft,lowB,midRight,lowC,midLeft,upLeft,upRight,4,rew_high,z,,,,,0,43,43,1,,,0.6,0.8,exp,z,1,7.16,-7.16,-7.16,-7.16,10.14,0,-10.14,0,-7.16,7.16,7.16,7.16,8,148,31,2973,0.9018675999977859,143,144,9,RL,1,F,23,R,2025-04-18_14h20.42.973,RewSL_RL_EEG,
ping,lowC,midLeft,UP,red,l,lowA,Stimuli\red_bar1.png,Stimuli\red_bar1.png,Stimuli\ping.png,downLeft,lowB,midRight,high,downRight,upLeft,upRight,4,rew_low,z,,,,,0,44,44,96,,,0.5,0.7,exp,m,0,-10.14,0,-7.16,-7.16,10.14,0,7.16,-7.16,-7.16,7.16,7.16,7.16,8,118,30,2973,0.7025131999980658,144,145,9,RL,1,F,23,R,2025-04-18_14h20.42.973,RewSL_RL_EEG,
ping,lowA,downLeft,DOWN,green,r,high,Stimuli\green_bar1.png,Stimuli\green_bar1.png,Stimuli\ping.png,downRight,lowB,midRight,lowC,midLeft,upLeft,upRight,4,rew_low,m,,,,,0,45,45,47,,,0.5,0.7,exp,m,1,-7.16,-7.16,7.16,-7.16,10.14,0,-10.14,0,-7.16,7.16,7.16,7.16,8,238,30,2974,0.7150814000051469,145,146,9,RL,1,F,23,R,2025-04-18_14h20.42.973,RewSL_RL_EEG,
ping,high,downRight,DOWN,green,l,lowA,Stimuli\green_bar1.png,Stimuli\green_bar1.png,Stimuli\ping.png,downLeft,lowB,midRight,lowC,midLeft,upLeft,upRight,4,rew_high,m,,,,,0,46,46,19,,,0.5,0.7,exp,m,1,7.16,-7.16,-7.16,-7.16,10.14,0,-10.14,0,-7.16,7.16,7.16,7.16,8,248,31,3074,1.0563561000017216,146,147,9,RL,1,F,23,R,2025-04-18_14h20.42.973,RewSL_RL_EEG,
ping,lowB,midRight,UP,red,l,lowA,Stimuli\red_bar1.png,Stimuli\red_bar1.png,Stimuli\ping.png,downLeft,high,downRight,lowC,midLeft,upLeft,upRight,4,rew_low,z,,,,,0,47,47,56,,,0.4,0.7,exp,z,1,10.14,0,-7.16,-7.16,7.16,-7.16,-10.14,0,-7.16,7.16,7.16,7.16,8,128,30,3075,0.6067511000001105,147,148,9,RL,1,F,23,R,2025-04-18_14h20.42.973,RewSL_RL_EEG,
ping,lowA,downLeft,UP,red,r,high,Stimuli\red_bar1.png,Stimuli\red_bar1.png,Stimuli\ping.png,downRight,lowB,midRight,lowC,midLeft,upLeft,upRight,4,rew_low,z,,,,,0,48,48,28,,,0.4,0.6,exp,z,1,-7.16,-7.16,7.16,-7.16,10.14,0,-10.14,0,-7.16,7.16,7.16,7.16,8,138,30,3076,0.6432290999946417,148,149,9,RL,1,F,23,R,2025-04-18_14h20.42.973,RewSL_RL_EEG,
ping,lowB,midRight,UP,green,r,lowA,Stimuli\green_bar1.png,Stimuli\green_bar1.png,Stimuli\ping.png,downLeft,high,downRight,lowC,midLeft,upLeft,upRight,4,rew_low,z,,,,,0,49,49,53,,,0.4,0.6,exp,z,1,10.14,0,-7.16,-7.16,7.16,-7.16,-10.14,0,-7.16,7.16,7.16,7.16,8,128,30,3077,0.6604163000010885,149,150,9,RL,1,F,23,R,2025-04-18_14h20.42.973,RewSL_RL_EEG,
ping,lowC,midLeft,DOWN,green,l,lowA,Stimuli\green_bar1.png,Stimuli\green_bar1.png,Stimuli\ping.png,downLeft,lowB,midRight,high,downRight,upLeft,upRight,4,rew_low,m,,,,,0,50,50,83,,,0.6,0.7,exp,None,0,-10.14,0,-7.16,-7.16,10.14,0,7.16,-7.16,-7.16,7.16,7.16,7.16,8,218,30,3077,,150,151,9,RL,1,F,23,R,2025-04-18_14h20.42.973,RewSL_RL_EEG,
ping,lowA,downLeft,UP,green,l,high,Stimuli\green_bar1.png,Stimuli\green_bar1.png,Stimuli\ping.png,downRight,lowB,midRight,lowC,midLeft,upLeft,upRight,4,rew_low,z,,,,,0,51,51,25,,,0.5,0.7,exp,m,0,-7.16,-7.16,7.16,-7.16,10.14,0,-10.14,0,-7.16,7.16,7.16,7.16,8,138,30,3077,0.9184539999987464,151,152,9,RL,1,F,23,R,2025-04-18_14h20.42.973,RewSL_RL_EEG,
ping,lowA,downLeft,DOWN,red,l,high,Stimuli\red_bar1.png,Stimuli\red_bar1.png,Stimuli\ping.png,downRight,lowB,midRight,lowC,midLeft,upLeft,upRight,4,rew_low,m,,,,,0,52,52,26,,,0.4,0.7,exp,m,1,-7.16,-7.16,7.16,-7.16,10.14,0,-10.14,0,-7.16,7.16,7.16,7.16,8,238,30,3078,0.564281500002835,152,153,9,RL,1,F,23,R,2025-04-18_14h20.42.973,RewSL_RL_EEG,
ping,lowA,downLeft,DOWN,green,r,high,Stimuli\green_bar1.png,Stimuli\green_bar1.png,Stimuli\ping.png,downRight,lowB,midRight,lowC,midLeft,upLeft,upRight,4,rew_low,m,,,,,0,53,53,31,,,0.5,0.8,exp,m,1,-7.16,-7.16,7.16,-7.16,10.14,0,-10.14,0,-7.16,7.16,7.16,7.16,8,238,30,3079,0.6186826999910409,153,154,9,RL,1,F,23,R,2025-04-18_14h20.42.973,RewSL_RL_EEG,
ping,lowB,midRight,DOWN,red,l,lowA,Stimuli\red_bar1.png,Stimuli\red_bar1.png,Stimuli\ping.png,downLeft,high,downRight,lowC,midLeft,upLeft,upRight,4,rew_low,m,,,,,0,54,54,50,,,0.5,0.6,exp,m,1,10.14,0,-7.16,-7.16,7.16,-7.16,-10.14,0,-7.16,7.16,7.16,7.16,8,228,30,3080,0.618145899992669,154,155,9,RL,1,F,23,R,2025-04-18_14h20.42.973,RewSL_RL_EEG,
ping,high,downRight,UP,green,r,lowA,Stimuli\green_bar1.png,Stimuli\green_bar1.png,Stimuli\ping.png,downLeft,lowB,midRight,lowC,midLeft,upLeft,upRight,4,rew_high,z,,,,,0,55,55,5,,,0.5,0.7,exp,z,1,7.16,-7.16,-7.16,-7.16,10.14,0,-10.14,0,-7.16,7.16,7.16,7.16,8,148,31,3180,0.6939350999891758,155,156,9,RL,1,F,23,R,2025-04-18_14h20.42.973,RewSL_RL_EEG,
ping,lowA,downLeft,UP,red,r,high,Stimuli\red_bar1.png,Stimuli\red_bar1.png,Stimuli\ping.png,downRight,lowB,midRight,lowC,midLeft,upLeft,upRight,4,rew_low,z,,,,,0,56,56,44,,,0.6,0.7,exp,z,1,-7.16,-7.16,7.16,-7.16,10.14,0,-10.14,0,-7.16,7.16,7.16,7.16,8,138,30,3181,0.5228126000001794,156,157,9,RL,1,F,23,R,2025-04-18_14h20.42.973,RewSL_RL_EEG,
ping,high,downRight,DOWN,green,r,lowA,Stimuli\green_bar1.png,Stimuli\green_bar1.png,Stimuli\ping.png,downLeft,lowB,midRight,lowC,midLeft,upLeft,upRight,4,rew_high,m,,,,,0,57,57,7,,,0.5,0.7,exp,z,0,7.16,-7.16,-7.16,-7.16,10.14,0,-10.14,0,-7.16,7.16,7.16,7.16,8,248,31,3181,0.5811211000109324,157,158,9,RL,1,F,23,R,2025-04-18_14h20.42.973,RewSL_RL_EEG,
ping,lowC,midLeft,UP,green,r,lowA,Stimuli\green_bar1.png,Stimuli\green_bar1.png,Stimuli\ping.png,downLeft,lowB,midRight,high,downRight,upLeft,upRight,4,rew_low,z,,,,,0,58,58,77,,,0.4,0.6,exp,z,1,-10.14,0,-7.16,-7.16,10.14,0,7.16,-7.16,-7.16,7.16,7.16,7.16,8,118,30,3182,0.8188502999983029,158,159,9,RL,1,F,23,R,2025-04-18_14h20.42.973,RewSL_RL_EEG,
ping,lowC,midLeft,DOWN,green,l,lowA,Stimuli\green_bar1.png,Stimuli\green_bar1.png,Stimuli\ping.png,downLeft,lowB,midRight,high,downRight,upLeft,upRight,4,rew_low,m,,,,,0,59,59,91,,,0.6,0.7,exp,m,1,-10.14,0,-7.16,-7.16,10.14,0,7.16,-7.16,-7.16,7.16,7.16,7.16,8,218,30,3183,0.7937090999912471,159,160,9,RL,1,F,23,R,2025-04-18_14h20.42.973,RewSL_RL_EEG,
ping,high,downRight,DOWN,red,l,lowA,Stimuli\red_bar1.png,Stimuli\red_bar1.png,Stimuli\ping.png,downLeft,lowB,midRight,lowC,midLeft,upLeft,upRight,4,rew_high,m,,,,,0,60,60,10,,,0.5,0.7,exp,m,1,7.16,-7.16,-7.16,-7.16,10.14,0,-10.14,0,-7.16,7.16,7.16,7.16,8,248,31,3283,1.1356211999955121,160,161,9,RL,1,F,23,R,2025-04-18_14h20.42.973,RewSL_RL_EEG,
ping,lowA,downLeft,UP,red,l,high,Stimuli\red_bar1.png,Stimuli\red_bar1.png,Stimuli\ping.png,downRight,lowB,midRight,lowC,midLeft,upLeft,upRight,4,rew_low,z,,,,,0,61,61,48,,,0.5,0.8,exp,z,1,-7.16,-7.16,7.16,-7.16,10.14,0,-10.14,0,-7.16,7.16,7.16,7.16,8,138,30,3284,0.5813837000023341,161,162,9,RL,1,F,23,R,2025-04-18_14h20.42.973,RewSL_RL_EEG,
ping,lowB,midRight,DOWN,red,r,lowA,Stimuli\red_bar1.png,Stimuli\red_bar1.png,Stimuli\ping.png,downLeft,high,downRight,lowC,midLeft,upLeft,upRight,4,rew_low,m,,,,,0,62,62,70,,,0.5,0.7,exp,z,0,10.14,0,-7.16,-7.16,7.16,-7.16,-10.14,0,-7.16,7.16,7.16,7.16,8,228,30,3284,0.7486616999958642,162,163,9,RL,1,F,23,R,2025-04-18_14h20.42.973,RewSL_RL_EEG,
ping,lowC,midLeft,UP,green,l,lowA,Stimuli\green_bar1.png,Stimuli\green_bar1.png,Stimuli\ping.png,downLeft,lowB,midRight,high,downRight,upLeft,upRight,4,rew_low,z,,,,,0,63,63,89,,,0.5,0.7,exp,m,0,-10.14,0,-7.16,-7.16,10.14,0,7.16,-7.16,-7.16,7.16,7.16,7.16,8,118,30,3284,0.868927799994708,163,164,9,RL,1,F,23,R,2025-04-18_14h20.42.973,RewSL_RL_EEG,
ping,lowC,midLeft,DOWN,red,l,lowA,Stimuli\red_bar1.png,Stimuli\red_bar1.png,Stimuli\ping.png,downLeft,lowB,midRight,high,downRight,upLeft,upRight,4,rew_low,m,,,,,0,64,64,82,,,0.4,0.6,exp,z,0,-10.14,0,-7.16,-7.16,10.14,0,7.16,-7.16,-7.16,7.16,7.16,7.16,8,218,30,3284,0.7273847000033129,164,165,9,RL,1,F,23,R,2025-04-18_14h20.42.973,RewSL_RL_EEG,
ping,lowA,downLeft,DOWN,red,r,high,Stimuli\red_bar1.png,Stimuli\red_bar1.png,Stimuli\ping.png,downRight,lowB,midRight,lowC,midLeft,upLeft,upRight,4,rew_low,m,,,,,0,65,65,38,,,0.5,0.8,exp,m,1,-7.16,-7.16,7.16,-7.16,10.14,0,-10.14,0,-7.16,7.16,7.16,7.16,8,238,30,3285,0.5234785999928135,165,166,9,RL,1,F,23,R,2025-04-18_14h20.42.973,RewSL_RL_EEG,
ping,lowC,midLeft,DOWN,red,l,lowA,Stimuli\red_bar1.png,Stimuli\red_bar1.png,Stimuli\ping.png,downLeft,lowB,midRight,high,downRight,upLeft,upRight,4,rew_low,m,,,,,0,66,66,90,,,0.5,0.7,exp,m,1,-10.14,0,-7.16,-7.16,10.14,0,7.16,-7.16,-7.16,7.16,7.16,7.16,8,218,30,3286,0.6145467000023928,166,167,9,RL,1,F,23,R,2025-04-18_14h20.42.973,RewSL_RL_EEG,
ping,lowB,midRight,UP,green,r,lowA,Stimuli\green_bar1.png,Stimuli\green_bar1.png,Stimuli\ping.png,downLeft,high,downRight,lowC,midLeft,upLeft,upRight,4,rew_low,z,,,,,0,67,67,69,,,0.5,0.8,exp,z,1,10.14,0,-7.16,-7.16,7.16,-7.16,-10.14,0,-7.16,7.16,7.16,7.16,8,128,30,3287,0.6069231000001309,167,168,9,RL,1,F,23,R,2025-04-18_14h20.42.973,RewSL_RL_EEG,
ping,lowB,midRight,UP,red,r,lowA,Stimuli\red_bar1.png,Stimuli\red_bar1.png,Stimuli\ping.png,downLeft,high,downRight,lowC,midLeft,upLeft,upRight,4,rew_low,z,,,,,0,68,68,52,,,0.4,0.7,exp,z,1,10.14,0,-7.16,-7.16,7.16,-7.16,-10.14,0,-7.16,7.16,7.16,7.16,8,128,30,3288,0.5685786999965785,168,169,9,RL,1,F,23,R,2025-04-18_14h20.42.973,RewSL_RL_EEG,
ping,lowB,midRight,DOWN,green,r,lowA,Stimuli\green_bar1.png,Stimuli\green_bar1.png,Stimuli\ping.png,downLeft,high,downRight,lowC,midLeft,upLeft,upRight,4,rew_low,m,,,,,0,69,69,71,,,0.4,0.6,exp,m,1,10.14,0,-7.16,-7.16,7.16,-7.16,-10.14,0,-7.16,7.16,7.16,7.16,8,228,30,3289,0.7768622000003234,169,170,9,RL,1,F,23,R,2025-04-18_14h20.42.973,RewSL_RL_EEG,
ping,lowA,downLeft,UP,green,l,high,Stimuli\green_bar1.png,Stimuli\green_bar1.png,Stimuli\ping.png,downRight,lowB,midRight,lowC,midLeft,upLeft,upRight,4,rew_low,z,,,,,0,70,70,49,,,0.4,0.8,exp,z,1,-7.16,-7.16,7.16,-7.16,10.14,0,-10.14,0,-7.16,7.16,7.16,7.16,8,138,30,3290,0.685032900000806,170,171,9,RL,1,F,23,R,2025-04-18_14h20.42.973,RewSL_RL_EEG,
ping,lowC,midLeft,DOWN,green,l,lowA,Stimuli\green_bar1.png,Stimuli\green_bar1.png,Stimuli\ping.png,downLeft,lowB,midRight,high,downRight,upLeft,upRight,4,rew_low,m,,,,,0,71,71,75,,,0.6,0.7,exp,m,1,-10.14,0,-7.16,-7.16,10.14,0,7.16,-7.16,-7.16,7.16,7.16,7.16,8,218,30,3291,0.7729439999966417,171,172,9,RL,1,F,23,R,2025-04-18_14h20.42.973,RewSL_RL_EEG,
ping,high,downRight,UP,red,r,lowA,Stimuli\red_bar1.png,Stimuli\red_bar1.png,Stimuli\ping.png,downLeft,lowB,midRight,lowC,midLeft,upLeft,upRight,4,rew_high,z,,,,,0,72,72,20,,,0.5,0.7,exp,z,1,7.16,-7.16,-7.16,-7.16,10.14,0,-10.14,0,-7.16,7.16,7.16,7.16,8,148,31,3391,0.5901408000063384,172,173,9,RL,1,F,23,R,2025-04-18_14h20.42.973,RewSL_RL_EEG,
ping,lowB,midRight,DOWN,green,r,lowA,Stimuli\green_bar1.png,Stimuli\green_bar1.png,Stimuli\ping.png,downLeft,high,downRight,lowC,midLeft,upLeft,upRight,4,rew_low,m,,,,,0,73,73,55,,,0.4,0.6,exp,m,1,10.14,0,-7.16,-7.16,7.16,-7.16,-10.14,0,-7.16,7.16,7.16,7.16,8,228,30,3392,0.6058017999894219,173,174,9,RL,1,F,23,R,2025-04-18_14h20.42.973,RewSL_RL_EEG,
ping,lowB,midRight,DOWN,green,l,lowA,Stimuli\green_bar1.png,Stimuli\green_bar1.png,Stimuli\ping.png,downLeft,high,downRight,lowC,midLeft,upLeft,upRight,4,rew_low,m,,,,,0,74,74,67,,,0.5,0.7,exp,m,1,10.14,0,-7.16,-7.16,7.16,-7.16,-10.14,0,-7.16,7.16,7.16,7.16,8,228,30,3393,0.7553971000015736,174,175,9,RL,1,F,23,R,2025-04-18_14h20.42.973,RewSL_RL_EEG,
ping,lowC,midLeft,DOWN,red,r,lowA,Stimuli\red_bar1.png,Stimuli\red_bar1.png,Stimuli\ping.png,downLeft,lowB,midRight,high,downRight,upLeft,upRight,4,rew_low,m,,,,,0,75,75,94,,,0.5,0.6,exp,z,0,-10.14,0,-7.16,-7.16,10.14,0,7.16,-7.16,-7.16,7.16,7.16,7.16,8,218,30,3393,0.7181564000056824,175,176,9,RL,1,F,23,R,2025-04-18_14h20.42.973,RewSL_RL_EEG,
ping,lowC,midLeft,DOWN,red,r,lowA,Stimuli\red_bar1.png,Stimuli\red_bar1.png,Stimuli\ping.png,downLeft,lowB,midRight,high,downRight,upLeft,upRight,4,rew_low,m,,,,,0,76,76,98,,,0.4,0.8,exp,z,0,-10.14,0,-7.16,-7.16,10.14,0,7.16,-7.16,-7.16,7.16,7.16,7.16,8,218,30,3393,0.6516211999987718,176,177,9,RL,1,F,23,R,2025-04-18_14h20.42.973,RewSL_RL_EEG,
ping,lowC,midLeft,UP,red,r,lowA,Stimuli\red_bar1.png,Stimuli\red_bar1.png,Stimuli\ping.png,downLeft,lowB,midRight,high,downRight,upLeft,upRight,4,rew_low,z,,,,,0,77,77,76,,,0.4,0.6,exp,z,1,-10.14,0,-7.16,-7.16,10.14,0,7.16,-7.16,-7.16,7.16,7.16,7.16,8,118,30,3394,0.6799984000099357,177,178,9,RL,1,F,23,R,2025-04-18_14h20.42.973,RewSL_RL_EEG,
ping,lowB,midRight,DOWN,green,l,lowA,Stimuli\green_bar1.png,Stimuli\green_bar1.png,Stimuli\ping.png,downLeft,high,downRight,lowC,midLeft,upLeft,upRight,4,rew_low,m,,,,,0,78,78,59,,,0.5,0.6,exp,m,1,10.14,0,-7.16,-7.16,7.16,-7.16,-10.14,0,-7.16,7.16,7.16,7.16,8,228,30,3395,0.5558347999904072,178,179,9,RL,1,F,23,R,2025-04-18_14h20.42.973,RewSL_RL_EEG,
ping,lowA,downLeft,UP,green,r,high,Stimuli\green_bar1.png,Stimuli\green_bar1.png,Stimuli\ping.png,downRight,lowB,midRight,lowC,midLeft,upLeft,upRight,4,rew_low,z,,,,,0,79,79,29,,,0.6,0.6,exp,z,1,-7.16,-7.16,7.16,-7.16,10.14,0,-10.14,0,-7.16,7.16,7.16,7.16,8,138,30,3396,0.8644019999919692,179,180,9,RL,1,F,23,R,2025-04-18_14h20.42.973,RewSL_RL_EEG,
ping,lowC,midLeft,DOWN,green,r,lowA,Stimuli\green_bar1.png,Stimuli\green_bar1.png,Stimuli\ping.png,downLeft,lowB,midRight,high,downRight,upLeft,upRight,4,rew_low,m,,,,,0,80,80,87,,,0.5,0.7,exp,m,1,-10.14,0,-7.16,-7.16,10.14,0,7.16,-7.16,-7.16,7.16,7.16,7.16,8,218,30,3397,0.9071139000006951,180,181,9,RL,1,F,23,R,2025-04-18_14h20.42.973,RewSL_RL_EEG,
ping,lowA,downLeft,DOWN,green,l,high,Stimuli\green_bar1.png,Stimuli\green_bar1.png,Stimuli\ping.png,downRight,lowB,midRight,lowC,midLeft,upLeft,upRight,4,rew_low,m,,,,,0,81,81,35,,,0.5,0.7,exp,m,1,-7.16,-7.16,7.16,-7.16,10.14,0,-10.14,0,-7.16,7.16,7.16,7.16,8,238,30,3398,1.256999999997788,181,182,9,RL,1,F,23,R,2025-04-18_14h20.42.973,RewSL_RL_EEG,
ping,lowC,midLeft,DOWN,red,r,lowA,Stimuli\red_bar1.png,Stimuli\red_bar1.png,Stimuli\ping.png,downLeft,lowB,midRight,high,downRight,upLeft,upRight,4,rew_low,m,,,,,0,82,82,78,,,0.6,0.7,exp,m,1,-10.14,0,-7.16,-7.16,10.14,0,7.16,-7.16,-7.16,7.16,7.16,7.16,8,218,30,3399,0.5725784999958705,182,183,9,RL,1,F,23,R,2025-04-18_14h20.42.973,RewSL_RL_EEG,
ping,lowA,downLeft,DOWN,red,l,high,Stimuli\red_bar1.png,Stimuli\red_bar1.png,Stimuli\ping.png,downRight,lowB,midRight,lowC,midLeft,upLeft,upRight,4,rew_low,m,,,,,0,83,83,42,,,0.6,0.7,exp,m,1,-7.16,-7.16,7.16,-7.16,10.14,0,-10.14,0,-7.16,7.16,7.16,7.16,8,238,30,3400,0.6431547000102,183,184,9,RL,1,F,23,R,2025-04-18_14h20.42.973,RewSL_RL_EEG,
ping,lowC,midLeft,UP,red,r,lowA,Stimuli\red_bar1.png,Stimuli\red_bar1.png,Stimuli\ping.png,downLeft,lowB,midRight,high,downRight,upLeft,upRight,4,rew_low,z,,,,,0,84,84,92,,,0.5,0.6,exp,z,1,-10.14,0,-7.16,-7.16,10.14,0,7.16,-7.16,-7.16,7.16,7.16,7.16,8,118,30,3401,0.5858487999939825,184,185,9,RL,1,F,23,R,2025-04-18_14h20.42.973,RewSL_RL_EEG,
ping,lowC,midLeft,UP,red,l,lowA,Stimuli\red_bar1.png,Stimuli\red_bar1.png,Stimuli\ping.png,downLeft,lowB,midRight,high,downRight,upLeft,upRight,4,rew_low,z,,,,,0,85,85,80,,,0.5,0.7,exp,z,1,-10.14,0,-7.16,-7.16,10.14,0,7.16,-7.16,-7.16,7.16,7.16,7.16,8,118,30,3402,0.5271715000126278,185,186,9,RL,1,F,23,R,2025-04-18_14h20.42.973,RewSL_RL_EEG,
ping,lowA,downLeft,UP,red,l,high,Stimuli\red_bar1.png,Stimuli\red_bar1.png,Stimuli\ping.png,downRight,lowB,midRight,lowC,midLeft,upLeft,upRight,4,rew_low,z,,,,,0,86,86,40,,,0.4,0.7,exp,z,1,-7.16,-7.16,7.16,-7.16,10.14,0,-10.14,0,-7.16,7.16,7.16,7.16,8,138,30,3403,0.6687987999903271,186,187,9,RL,1,F,23,R,2025-04-18_14h20.42.973,RewSL_RL_EEG,
ping,lowA,downLeft,DOWN,red,r,high,Stimuli\red_bar1.png,Stimuli\red_bar1.png,Stimuli\ping.png,downRight,lowB,midRight,lowC,midLeft,upLeft,upRight,4,rew_low,m,,,,,0,87,87,30,,,0.5,0.7,exp,m,1,-7.16,-7.16,7.16,-7.16,10.14,0,-10.14,0,-7.16,7.16,7.16,7.16,8,238,30,3404,0.6146357000106946,187,188,9,RL,1,F,23,R,2025-04-18_14h20.42.973,RewSL_RL_EEG,
ping,lowA,downLeft,UP,green,l,high,Stimuli\green_bar1.png,Stimuli\green_bar1.png,Stimuli\ping.png,downRight,lowB,midRight,lowC,midLeft,upLeft,upRight,4,rew_low,z,,,,,0,88,88,41,,,0.6,0.7,exp,z,1,-7.16,-7.16,7.16,-7.16,10.14,0,-10.14,0,-7.16,7.16,7.16,7.16,8,138,30,3405,0.9774567999993451,188,189,9,RL,1,F,23,R,2025-04-18_14h20.42.973,RewSL_RL_EEG,
ping,lowB,midRight,DOWN,red,l,lowA,Stimuli\red_bar1.png,Stimuli\red_bar1.png,Stimuli\ping.png,downLeft,high,downRight,lowC,midLeft,upLeft,upRight,4,rew_low,m,,,,,0,89,89,66,,,0.5,0.7,exp,m,1,10.14,0,-7.16,-7.16,7.16,-7.16,-10.14,0,-7.16,7.16,7.16,7.16,8,228,30,3406,0.6643183999985922,189,190,9,RL,1,F,23,R,2025-04-18_14h20.42.973,RewSL_RL_EEG,
ping,lowC,midLeft,UP,green,r,lowA,Stimuli\green_bar1.png,Stimuli\green_bar1.png,Stimuli\ping.png,downLeft,lowB,midRight,high,downRight,upLeft,upRight,4,rew_low,z,,,,,0,90,90,85,,,0.5,0.7,exp,z,1,-10.14,0,-7.16,-7.16,10.14,0,7.16,-7.16,-7.16,7.16,7.16,7.16,8,118,30,3407,0.6603962000081083,190,191,9,RL,1,F,23,R,2025-04-18_14h20.42.973,RewSL_RL_EEG,
ping,lowB,midRight,UP,green,r,lowA,Stimuli\green_bar1.png,Stimuli\green_bar1.png,Stimuli\ping.png,downLeft,high,downRight,lowC,midLeft,upLeft,upRight,4,rew_low,z,,,,,0,91,91,61,,,0.4,0.8,exp,z,1,10.14,0,-7.16,-7.16,7.16,-7.16,-10.14,0,-7.16,7.16,7.16,7.16,8,128,30,3408,0.8147681999980705,191,192,9,RL,1,F,23,R,2025-04-18_14h20.42.973,RewSL_RL_EEG,
ping,high,downRight,UP,red,l,lowA,Stimuli\red_bar1.png,Stimuli\red_bar1.png,Stimuli\ping.png,downLeft,lowB,midRight,lowC,midLeft,upLeft,upRight,4,rew_high,z,,,,,0,92,92,0,,,0.6,0.6,exp,z,1,7.16,-7.16,-7.16,-7.16,10.14,0,-10.14,0,-7.16,7.16,7.16,7.16,8,148,31,3508,0.9940373999997973,192,193,9,RL,1,F,23,R,2025-04-18_14h20.42.973,RewSL_RL_EEG,
ping,lowA,downLeft,DOWN,green,r,high,Stimuli\green_bar1.png,Stimuli\green_bar1.png,Stimuli\ping.png,downRight,lowB,midRight,lowC,midLeft,upLeft,upRight,4,rew_low,m,,,,,0,93,93,39,,,0.5,0.6,exp,m,1,-7.16,-7.16,7.16,-7.16,10.14,0,-10.14,0,-7.16,7.16,7.16,7.16,8,238,30,3509,0.7640832000033697,193,194,9,RL,1,F,23,R,2025-04-18_14h20.42.973,RewSL_RL_EEG,
ping,lowC,midLeft,UP,green,r,lowA,Stimuli\green_bar1.png,Stimuli\green_bar1.png,Stimuli\ping.png,downLeft,lowB,midRight,high,downRight,upLeft,upRight,4,rew_low,z,,,,,0,94,94,93,,,0.6,0.6,exp,z,1,-10.14,0,-7.16,-7.16,10.14,0,7.16,-7.16,-7.16,7.16,7.16,7.16,8,118,30,3510,0.9351023000053829,194,195,9,RL,1,F,23,R,2025-04-18_14h20.42.973,RewSL_RL_EEG,
ping,lowB,midRight,DOWN,red,r,lowA,Stimuli\red_bar1.png,Stimuli\red_bar1.png,Stimuli\ping.png,downLeft,high,downRight,lowC,midLeft,upLeft,upRight,4,rew_low,m,,,,,0,95,95,62,,,0.4,0.8,exp,m,1,10.14,0,-7.16,-7.16,7.16,-7.16,-10.14,0,-7.16,7.16,7.16,7.16,8,228,30,3511,0.593565100003616,195,196,9,RL,1,F,23,R,2025-04-18_14h20.42.973,RewSL_RL_EEG,
ping,lowA,downLeft,DOWN,green,l,high,Stimuli\green_bar1.png,Stimuli\green_bar1.png,Stimuli\ping.png,downRight,lowB,midRight,lowC,midLeft,upLeft,upRight,4,rew_low,m,,,,,0,96,96,43,,,0.5,0.8,exp,z,0,-7.16,-7.16,7.16,-7.16,10.14,0,-10.14,0,-7.16,7.16,7.16,7.16,8,238,30,3511,0.9518873000051826,196,197,9,RL,1,F,23,R,2025-04-18_14h20.42.973,RewSL_RL_EEG,
ping,lowB,midRight,DOWN,green,l,lowA,Stimuli\green_bar1.png,Stimuli\green_bar1.png,Stimuli\ping.png,downLeft,high,downRight,lowC,midLeft,upLeft,upRight,4,rew_low,m,,,,,0,97,97,51,,,0.6,0.7,exp,m,1,10.14,0,-7.16,-7.16,7.16,-7.16,-10.14,0,-7.16,7.16,7.16,7.16,8,228,30,3512,0.6402166999905603,197,198,9,RL,1,F,23,R,2025-04-18_14h20.42.973,RewSL_RL_EEG,
ping,lowB,midRight,DOWN,green,r,lowA,Stimuli\green_bar1.png,Stimuli\green_bar1.png,Stimuli\ping.png,downLeft,high,downRight,lowC,midLeft,upLeft,upRight,4,rew_low,m,,,,,0,98,98,63,,,0.5,0.7,exp,m,1,10.14,0,-7.16,-7.16,7.16,-7.16,-10.14,0,-7.16,7.16,7.16,7.16,8,228,30,3513,0.5568098999938229,198,199,9,RL,1,F,23,R,2025-04-18_14h20.42.973,RewSL_RL_EEG,
ping,lowC,midLeft,UP,green,l,lowA,Stimuli\green_bar1.png,Stimuli\green_bar1.png,Stimuli\ping.png,downLeft,lowB,midRight,high,downRight,upLeft,upRight,4,rew_low,z,,,,,0,99,99,97,,,0.5,0.6,exp,z,1,-10.14,0,-7.16,-7.16,10.14,0,7.16,-7.16,-7.16,7.16,7.16,7.16,8,118,30,3514,0.6939177000022028,199,200,9,RL,1,F,23,R,2025-04-18_14h20.42.973,RewSL_RL_EEG,
ping,lowC,downLeft,UP,red,r,lowA,Stimuli\red_bar1.png,Stimuli\red_bar1.png,Stimuli\ping.png,midLeft,lowB,downRight,high,midRight,upLeft,upRight,2,rew_low,z,,,,,0,0,0,92,,,0.4,0.6,exp,z,1,-7.16,-7.16,-10.14,0,7.16,-7.16,10.14,0,-7.16,7.16,7.16,7.16,4,134,30,3515,1.0228764000057708,200,201,9,RL,1,F,23,R,2025-04-18_14h20.42.973,RewSL_RL_EEG,
ping,lowC,downLeft,UP,green,r,lowA,Stimuli\green_bar1.png,Stimuli\green_bar1.png,Stimuli\ping.png,midLeft,lowB,downRight,high,midRight,upLeft,upRight,2,rew_low,z,,,,,0,1,1,77,,,0.5,0.8,exp,z,1,-7.16,-7.16,-10.14,0,7.16,-7.16,10.14,0,-7.16,7.16,7.16,7.16,4,134,30,3516,0.7059498000016902,201,202,9,RL,1,F,23,R,2025-04-18_14h20.42.973,RewSL_RL_EEG,
ping,lowB,downRight,DOWN,green,r,lowA,Stimuli\green_bar1.png,Stimuli\green_bar1.png,Stimuli\ping.png,midLeft,high,midRight,lowC,downLeft,upLeft,upRight,2,rew_low,m,,,,,0,2,2,55,,,0.4,0.7,exp,m,1,7.16,-7.16,-10.14,0,10.14,0,-7.16,-7.16,-7.16,7.16,7.16,7.16,4,244,30,3517,0.9558761999942362,202,203,9,RL,1,F,23,R,2025-04-18_14h20.42.973,RewSL_RL_EEG,
ping,lowC,downLeft,UP,green,l,lowA,Stimuli\green_bar1.png,Stimuli\green_bar1.png,Stimuli\ping.png,midLeft,lowB,downRight,high,midRight,upLeft,upRight,2,rew_low,z,,,,,0,3,3,89,,,0.6,0.8,exp,z,1,-7.16,-7.16,-10.14,0,7.16,-7.16,10.14,0,-7.16,7.16,7.16,7.16,4,134,30,3518,0.8437195000005886,203,204,9,RL,1,F,23,R,2025-04-18_14h20.42.973,RewSL_RL_EEG,
ping,lowC,downLeft,DOWN,red,r,lowA,Stimuli\red_bar1.png,Stimuli\red_bar1.png,Stimuli\ping.png,midLeft,lowB,downRight,high,midRight,upLeft,upRight,2,rew_low,m,,,,,0,4,4,98,,,0.5,0.8,exp,m,1,-7.16,-7.16,-10.14,0,7.16,-7.16,10.14,0,-7.16,7.16,7.16,7.16,4,234,30,3519,0.6936390000046231,204,205,9,RL,1,F,23,R,2025-04-18_14h20.42.973,RewSL_RL_EEG,
ping,lowB,downRight,UP,red,l,lowA,Stimuli\red_bar1.png,Stimuli\red_bar1.png,Stimuli\ping.png,midLeft,high,midRight,lowC,downLeft,upLeft,upRight,2,rew_low,z,,,,,0,5,5,56,,,0.5,0.6,exp,z,1,7.16,-7.16,-10.14,0,10.14,0,-7.16,-7.16,-7.16,7.16,7.16,7.16,4,144,30,3520,0.7518085000046995,205,206,9,RL,1,F,23,R,2025-04-18_14h20.42.973,RewSL_RL_EEG,
ping,high,midRight,UP,red,r,lowA,Stimuli\red_bar1.png,Stimuli\red_bar1.png,Stimuli\ping.png,midLeft,lowB,downRight,lowC,downLeft,upLeft,upRight,2,rew_high,z,,,,,0,6,6,4,,,0.6,0.7,exp,z,1,10.14,0,-10.14,0,7.16,-7.16,-7.16,-7.16,-7.16,7.16,7.16,7.16,4,124,31,3620,0.7778988000063691,206,207,9,RL,1,F,23,R,2025-04-18_14h20.42.973,RewSL_RL_EEG,
ping,lowA,midLeft,DOWN,green,l,high,Stimuli\green_bar1.png,Stimuli\green_bar1.png,Stimuli\ping.png,midRight,lowB,downRight,lowC,downLeft,upLeft,upRight,2,rew_low,m,,,,,0,7,7,35,,,0.6,0.6,exp,z,0,-10.14,0,10.14,0,7.16,-7.16,-7.16,-7.16,-7.16,7.16,7.16,7.16,4,214,30,3620,1.0441108999948483,207,208,9,RL,1,F,23,R,2025-04-18_14h20.42.973,RewSL_RL_EEG,
ping,lowB,downRight,DOWN,green,r,lowA,Stimuli\green_bar1.png,Stimuli\green_bar1.png,Stimuli\ping.png,midLeft,high,midRight,lowC,downLeft,upLeft,upRight,2,rew_low,m,,,,,0,8,8,71,,,0.5,0.7,exp,m,1,7.16,-7.16,-10.14,0,10.14,0,-7.16,-7.16,-7.16,7.16,7.16,7.16,4,244,30,3621,0.7856848000083119,208,209,9,RL,1,F,23,R,2025-04-18_14h20.42.973,RewSL_RL_EEG,
ping,high,midRight,UP,green,l,lowA,Stimuli\green_bar1.png,Stimuli\green_bar1.png,Stimuli\ping.png,midLeft,lowB,downRight,lowC,downLeft,upLeft,upRight,2,rew_high,z,,,,,0,9,9,9,,,0.4,0.8,exp,z,1,10.14,0,-10.14,0,7.16,-7.16,-7.16,-7.16,-7.16,7.16,7.16,7.16,4,124,31,3721,0.7646365999971749,209,210,9,RL,1,F,23,R,2025-04-18_14h20.42.973,RewSL_RL_EEG,
ping,high,midRight,UP,red,l,lowA,Stimuli\red_bar1.png,Stimuli\red_bar1.png,Stimuli\ping.png,midLeft,lowB,downRight,lowC,downLeft,upLeft,upRight,2,rew_high,z,,,,,0,10,10,8,,,0.5,0.7,exp,z,1,10.14,0,-10.14,0,7.16,-7.16,-7.16,-7.16,-7.16,7.16,7.16,7.16,4,124,31,3821,0.6473435999942012,210,211,9,RL,1,F,23,R,2025-04-18_14h20.42.973,RewSL_RL_EEG,
ping,high,midRight,UP,red,r,lowA,Stimuli\red_bar1.png,Stimuli\red_bar1.png,Stimuli\ping.png,midLeft,lowB,downRight,lowC,downLeft,upLeft,upRight,2,rew_high,z,,,,,0,11,11,12,,,0.5,0.7,exp,z,1,10.14,0,-10.14,0,7.16,-7.16,-7.16,-7.16,-7.16,7.16,7.16,7.16,4,124,31,3921,0.6272689000034006,211,212,9,RL,1,F,23,R,2025-04-18_14h20.42.973,RewSL_RL_EEG,
ping,high,midRight,UP,red,l,lowA,Stimuli\red_bar1.png,Stimuli\red_bar1.png,Stimuli\ping.png,midLeft,lowB,downRight,lowC,downLeft,upLeft,upRight,2,rew_high,z,,,,,0,12,12,24,,,0.6,0.7,exp,z,1,10.14,0,-10.14,0,7.16,-7.16,-7.16,-7.16,-7.16,7.16,7.16,7.16,4,124,31,4021,0.5443168000056176,212,213,9,RL,1,F,23,R,2025-04-18_14h20.42.973,RewSL_RL_EEG,
ping,lowA,midLeft,UP,red,l,high,Stimuli\red_bar1.png,Stimuli\red_bar1.png,Stimuli\ping.png,midRight,lowB,downRight,lowC,downLeft,upLeft,upRight,2,rew_low,z,,,,,0,13,13,48,,,0.4,0.7,exp,z,1,-10.14,0,10.14,0,7.16,-7.16,-7.16,-7.16,-7.16,7.16,7.16,7.16,4,114,30,4022,0.6061644000001252,213,214,9,RL,1,F,23,R,2025-04-18_14h20.42.973,RewSL_RL_EEG,
ping,high,midRight,DOWN,red,r,lowA,Stimuli\red_bar1.png,Stimuli\red_bar1.png,Stimuli\ping.png,midLeft,lowB,downRight,lowC,downLeft,upLeft,upRight,2,rew_high,m,,,,,0,14,14,14,,,0.6,0.8,exp,m,1,10.14,0,-10.14,0,7.16,-7.16,-7.16,-7.16,-7.16,7.16,7.16,7.16,4,224,31,4122,0.5771241999900667,214,215,9,RL,1,F,23,R,2025-04-18_14h20.42.973,RewSL_RL_EEG,
ping,lowB,downRight,DOWN,red,r,lowA,Stimuli\red_bar1.png,Stimuli\red_bar1.png,Stimuli\ping.png,midLeft,high,midRight,lowC,downLeft,upLeft,upRight,2,rew_low,m,,,,,0,15,15,62,,,0.5,0.8,exp,m,1,7.16,-7.16,-10.14,0,10.14,0,-7.16,-7.16,-7.16,7.16,7.16,7.16,4,244,30,4123,0.7603815000038594,215,216,9,RL,1,F,23,R,2025-04-18_14h20.42.973,RewSL_RL_EEG,
ping,lowC,downLeft,DOWN,green,l,lowA,Stimuli\green_bar1.png,Stimuli\green_bar1.png,Stimuli\ping.png,midLeft,lowB,downRight,high,midRight,upLeft,upRight,2,rew_low,m,,,,,0,16,16,91,,,0.5,0.7,exp,None,0,-7.16,-7.16,-10.14,0,7.16,-7.16,10.14,0,-7.16,7.16,7.16,7.16,4,234,30,4123,,216,217,9,RL,1,F,23,R,2025-04-18_14h20.42.973,RewSL_RL_EEG,
ping,high,midRight,UP,red,l,lowA,Stimuli\red_bar1.png,Stimuli\red_bar1.png,Stimuli\ping.png,midLeft,lowB,downRight,lowC,downLeft,upLeft,upRight,2,rew_high,z,,,,,0,17,17,16,,,0.4,0.8,exp,z,1,10.14,0,-10.14,0,7.16,-7.16,-7.16,-7.16,-7.16,7.16,7.16,7.16,4,124,31,4223,0.5648733999987599,217,218,9,RL,1,F,23,R,2025-04-18_14h20.42.973,RewSL_RL_EEG,
ping,lowA,midLeft,DOWN,red,r,high,Stimuli\red_bar1.png,Stimuli\red_bar1.png,Stimuli\ping.png,midRight,lowB,downRight,lowC,downLeft,upLeft,upRight,2,rew_low,m,,,,,0,18,18,38,,,0.6,0.6,exp,m,1,-10.14,0,10.14,0,7.16,-7.16,-7.16,-7.16,-7.16,7.16,7.16,7.16,4,214,30,4224,0.7354878999904031,218,219,9,RL,1,F,23,R,2025-04-18_14h20.42.973,RewSL_RL_EEG,
ping,high,midRight,DOWN,red,l,lowA,Stimuli\red_bar1.png,Stimuli\red_bar1.png,Stimuli\ping.png,midLeft,lowB,downRight,lowC,downLeft,upLeft,upRight,2,rew_high,m,,,,,0,19,19,2,,,0.4,0.8,exp,m,1,10.14,0,-10.14,0,7.16,-7.16,-7.16,-7.16,-7.16,7.16,7.16,7.16,4,224,31,4324,0.6519743999961065,219,220,9,RL,1,F,23,R,2025-04-18_14h20.42.973,RewSL_RL_EEG,
ping,high,midRight,UP,green,l,lowA,Stimuli\green_bar1.png,Stimuli\green_bar1.png,Stimuli\ping.png,midLeft,lowB,downRight,lowC,downLeft,upLeft,upRight,2,rew_high,z,,,,,0,20,20,1,,,0.5,0.6,exp,z,1,10.14,0,-10.14,0,7.16,-7.16,-7.16,-7.16,-7.16,7.16,7.16,7.16,4,124,31,4424,0.8567236000089906,220,221,9,RL,1,F,23,R,2025-04-18_14h20.42.973,RewSL_RL_EEG,
ping,lowB,downRight,UP,green,r,lowA,Stimuli\green_bar1.png,Stimuli\green_bar1.png,Stimuli\ping.png,midLeft,high,midRight,lowC,downLeft,upLeft,upRight,2,rew_low,z,,,,,0,21,21,53,,,0.4,0.8,exp,z,1,7.16,-7.16,-10.14,0,10.14,0,-7.16,-7.16,-7.16,7.16,7.16,7.16,4,144,30,4425,0.7719483999971999,221,222,9,RL,1,F,23,R,2025-04-18_14h20.42.973,RewSL_RL_EEG,
ping,lowC,downLeft,DOWN,green,r,lowA,Stimuli\green_bar1.png,Stimuli\green_bar1.png,Stimuli\ping.png,midLeft,lowB,downRight,high,midRight,upLeft,upRight,2,rew_low,m,,,,,0,22,22,87,,,0.5,0.7,exp,m,1,-7.16,-7.16,-10.14,0,7.16,-7.16,10.14,0,-7.16,7.16,7.16,7.16,4,234,30,4426,0.6816003999992972,222,223,9,RL,1,F,23,R,2025-04-18_14h20.42.973,RewSL_RL_EEG,
ping,lowA,midLeft,UP,red,r,high,Stimuli\red_bar1.png,Stimuli\red_bar1.png,Stimuli\ping.png,midRight,lowB,downRight,lowC,downLeft,upLeft,upRight,2,rew_low,z,,,,,0,23,23,44,,,0.5,0.8,exp,z,1,-10.14,0,10.14,0,7.16,-7.16,-7.16,-7.16,-7.16,7.16,7.16,7.16,4,114,30,4427,0.7144623999920441,223,224,9,RL,1,F,23,R,2025-04-18_14h20.42.973,RewSL_RL_EEG,
ping,lowB,downRight,DOWN,red,l,lowA,Stimuli\red_bar1.png,Stimuli\red_bar1.png,Stimuli\ping.png,midLeft,high,midRight,lowC,downLeft,upLeft,upRight,2,rew_low,m,,,,,0,24,24,66,,,0.4,0.6,exp,m,1,7.16,-7.16,-10.14,0,10.14,0,-7.16,-7.16,-7.16,7.16,7.16,7.16,4,244,30,4428,0.7602853999997023,224,225,9,RL,1,F,23,R,2025-04-18_14h20.42.973,RewSL_RL_EEG,
ping,lowA,midLeft,DOWN,red,l,high,Stimuli\red_bar1.png,Stimuli\red_bar1.png,Stimuli\ping.png,midRight,lowB,downRight,lowC,downLeft,upLeft,upRight,2,rew_low,m,,,,,0,25,25,26,,,0.5,0.7,exp,m,1,-10.14,0,10.14,0,7.16,-7.16,-7.16,-7.16,-7.16,7.16,7.16,7.16,4,214,30,4429,0.6225449000048684,225,226,9,RL,1,F,23,R,2025-04-18_14h20.42.973,RewSL_RL_EEG,
ping,lowC,downLeft,UP,red,l,lowA,Stimuli\red_bar1.png,Stimuli\red_bar1.png,Stimuli\ping.png,midLeft,lowB,downRight,high,midRight,upLeft,upRight,2,rew_low,z,,,,,0,26,26,80,,,0.5,0.7,exp,z,1,-7.16,-7.16,-10.14,0,7.16,-7.16,10.14,0,-7.16,7.16,7.16,7.16,4,134,30,4430,0.6937036000017542,226,227,9,RL,1,F,23,R,2025-04-18_14h20.42.973,RewSL_RL_EEG,
ping,lowC,downLeft,DOWN,green,r,lowA,Stimuli\green_bar1.png,Stimuli\green_bar1.png,Stimuli\ping.png,midLeft,lowB,downRight,high,midRight,upLeft,upRight,2,rew_low,m,,,,,0,27,27,99,,,0.4,0.8,exp,m,1,-7.16,-7.16,-10.14,0,7.16,-7.16,10.14,0,-7.16,7.16,7.16,7.16,4,234,30,4431,0.7690251999883913,227,228,9,RL,1,F,23,R,2025-04-18_14h20.42.973,RewSL_RL_EEG,
ping,lowC,downLeft,DOWN,red,r,lowA,Stimuli\red_bar1.png,Stimuli\red_bar1.png,Stimuli\ping.png,midLeft,lowB,downRight,high,midRight,upLeft,upRight,2,rew_low,m,,,,,0,28,28,86,,,0.4,0.6,exp,m,1,-7.16,-7.16,-10.14,0,7.16,-7.16,10.14,0,-7.16,7.16,7.16,7.16,4,234,30,4432,0.6306209999893326,228,229,9,RL,1,F,23,R,2025-04-18_14h20.42.973,RewSL_RL_EEG,
ping,high,midRight,DOWN,red,l,lowA,Stimuli\red_bar1.png,Stimuli\red_bar1.png,Stimuli\ping.png,midLeft,lowB,downRight,lowC,downLeft,upLeft,upRight,2,rew_high,m,,,,,0,29,29,10,,,0.5,0.6,exp,m,1,10.14,0,-10.14,0,7.16,-7.16,-7.16,-7.16,-7.16,7.16,7.16,7.16,4,224,31,4532,0.6433114000101341,229,230,9,RL,1,F,23,R,2025-04-18_14h20.42.973,RewSL_RL_EEG,
ping,lowC,downLeft,UP,green,l,lowA,Stimuli\green_bar1.png,Stimuli\green_bar1.png,Stimuli\ping.png,midLeft,lowB,downRight,high,midRight,upLeft,upRight,2,rew_low,z,,,,,0,30,30,97,,,0.5,0.7,exp,m,0,-7.16,-7.16,-10.14,0,7.16,-7.16,10.14,0,-7.16,7.16,7.16,7.16,4,134,30,4532,0.7520864000107395,230,231,9,RL,1,F,23,R,2025-04-18_14h20.42.973,RewSL_RL_EEG,
ping,lowB,downRight,UP,green,l,lowA,Stimuli\green_bar1.png,Stimuli\green_bar1.png,Stimuli\ping.png,midLeft,high,midRight,lowC,downLeft,upLeft,upRight,2,rew_low,z,,,,,0,31,31,73,,,0.6,0.8,exp,z,1,7.16,-7.16,-10.14,0,10.14,0,-7.16,-7.16,-7.16,7.16,7.16,7.16,4,144,30,4533,0.7640941999998176,231,232,9,RL,1,F,23,R,2025-04-18_14h20.42.973,RewSL_RL_EEG,
ping,lowA,midLeft,DOWN,green,l,high,Stimuli\green_bar1.png,Stimuli\green_bar1.png,Stimuli\ping.png,midRight,lowB,downRight,lowC,downLeft,upLeft,upRight,2,rew_low,m,,,,,0,32,32,27,,,0.4,0.7,exp,m,1,-10.14,0,10.14,0,7.16,-7.16,-7.16,-7.16,-7.16,7.16,7.16,7.16,4,214,30,4534,0.776660699993954,232,233,9,RL,1,F,23,R,2025-04-18_14h20.42.973,RewSL_RL_EEG,
ping,lowC,downLeft,DOWN,green,r,lowA,Stimuli\green_bar1.png,Stimuli\green_bar1.png,Stimuli\ping.png,midLeft,lowB,downRight,high,midRight,upLeft,upRight,2,rew_low,m,,,,,0,33,33,79,,,0.4,0.6,exp,m,1,-7.16,-7.16,-10.14,0,7.16,-7.16,10.14,0,-7.16,7.16,7.16,7.16,4,234,30,4535,0.7897815000033006,233,234,9,RL,1,F,23,R,2025-04-18_14h20.42.973,RewSL_RL_EEG,
ping,lowB,downRight,UP,green,l,lowA,Stimuli\green_bar1.png,Stimuli\green_bar1.png,Stimuli\ping.png,midLeft,high,midRight,lowC,downLeft,upLeft,upRight,2,rew_low,z,,,,,0,34,34,65,,,0.5,0.8,exp,z,1,7.16,-7.16,-10.14,0,10.14,0,-7.16,-7.16,-7.16,7.16,7.16,7.16,4,144,30,4536,0.7019740999967325,234,235,9,RL,1,F,23,R,2025-04-18_14h20.42.973,RewSL_RL_EEG,
ping,lowC,downLeft,DOWN,red,l,lowA,Stimuli\red_bar1.png,Stimuli\red_bar1.png,Stimuli\ping.png,midLeft,lowB,downRight,high,midRight,upLeft,upRight,2,rew_low,m,,,,,0,35,35,90,,,0.4,0.7,exp,m,1,-7.16,-7.16,-10.14,0,7.16,-7.16,10.14,0,-7.16,7.16,7.16,7.16,4,234,30,4537,0.6970519000024069,235,236,9,RL,1,F,23,R,2025-04-18_14h20.42.973,RewSL_RL_EEG,
ping,lowB,downRight,UP,red,l,lowA,Stimuli\red_bar1.png,Stimuli\red_bar1.png,Stimuli\ping.png,midLeft,high,midRight,lowC,downLeft,upLeft,upRight,2,rew_low,z,,,,,0,36,36,64,,,0.5,0.7,exp,z,1,7.16,-7.16,-10.14,0,10.14,0,-7.16,-7.16,-7.16,7.16,7.16,7.16,4,144,30,4538,0.6237615999998525,236,237,9,RL,1,F,23,R,2025-04-18_14h20.42.973,RewSL_RL_EEG,
ping,lowB,downRight,UP,green,l,lowA,Stimuli\green_bar1.png,Stimuli\green_bar1.png,Stimuli\ping.png,midLeft,high,midRight,lowC,downLeft,upLeft,upRight,2,rew_low,z,,,,,0,37,37,57,,,0.5,0.7,exp,m,0,7.16,-7.16,-10.14,0,10.14,0,-7.16,-7.16,-7.16,7.16,7.16,7.16,4,144,30,4538,0.5311282000038773,237,238,9,RL,1,F,23,R,2025-04-18_14h20.42.973,RewSL_RL_EEG,
ping,lowA,midLeft,UP,green,r,high,Stimuli\green_bar1.png,Stimuli\green_bar1.png,Stimuli\ping.png,midRight,lowB,downRight,lowC,downLeft,upLeft,upRight,2,rew_low,z,,,,,0,38,38,37,,,0.6,0.7,exp,z,1,-10.14,0,10.14,0,7.16,-7.16,-7.16,-7.16,-7.16,7.16,7.16,7.16,4,114,30,4539,0.5193432000087341,238,239,9,RL,1,F,23,R,2025-04-18_14h20.42.973,RewSL_RL_EEG,
ping,high,midRight,DOWN,green,l,lowA,Stimuli\green_bar1.png,Stimuli\green_bar1.png,Stimuli\ping.png,midLeft,lowB,downRight,lowC,downLeft,upLeft,upRight,2,rew_high,m,,,,,0,39,39,19,,,0.5,0.6,exp,m,1,10.14,0,-10.14,0,7.16,-7.16,-7.16,-7.16,-7.16,7.16,7.16,7.16,4,224,31,4639,0.6318224999995437,239,240,9,RL,1,F,23,R,2025-04-18_14h20.42.973,RewSL_RL_EEG,
ping,lowB,downRight,DOWN,green,l,lowA,Stimuli\green_bar1.png,Stimuli\green_bar1.png,Stimuli\ping.png,midLeft,high,midRight,lowC,downLeft,upLeft,upRight,2,rew_low,m,,,,,0,40,40,67,,,0.4,0.7,exp,m,1,7.16,-7.16,-10.14,0,10.14,0,-7.16,-7.16,-7.16,7.16,7.16,7.16,4,244,30,4640,0.632052200002363,240,241,9,RL,1,F,23,R,2025-04-18_14h20.42.973,RewSL_RL_EEG,
ping,lowB,downRight,DOWN,red,r,lowA,Stimuli\red_bar1.png,Stimuli\red_bar1.png,Stimuli\ping.png,midLeft,high,midRight,lowC,downLeft,upLeft,upRight,2,rew_low,m,,,,,0,41,41,70,,,0.5,0.6,exp,m,1,7.16,-7.16,-10.14,0,10.14,0,-7.16,-7.16,-7.16,7.16,7.16,7.16,4,244,30,4641,0.5942985999863595,241,242,9,RL,1,F,23,R,2025-04-18_14h20.42.973,RewSL_RL_EEG,
ping,lowA,midLeft,DOWN,green,r,high,Stimuli\green_bar1.png,Stimuli\green_bar1.png,Stimuli\ping.png,midRight,lowB,downRight,lowC,downLeft,upLeft,upRight,2,rew_low,m,,,,,0,42,42,39,,,0.6,0.8,exp,z,0,-10.14,0,10.14,0,7.16,-7.16,-7.16,-7.16,-7.16,7.16,7.16,7.16,4,214,30,4641,0.5189327000116464,242,243,9,RL,1,F,23,R,2025-04-18_14h20.42.973,RewSL_RL_EEG,
ping,lowC,downLeft,UP,red,l,lowA,Stimuli\red_bar1.png,Stimuli\red_bar1.png,Stimuli\ping.png,midLeft,lowB,downRight,high,midRight,upLeft,upRight,2,rew_low,z,,,,,0,43,43,88,,,0.5,0.7,exp,m,0,-7.16,-7.16,-10.14,0,7.16,-7.16,10.14,0,-7.16,7.16,7.16,7.16,4,134,30,4641,0.5442812999972375,243,244,9,RL,1,F,23,R,2025-04-18_14h20.42.973,RewSL_RL_EEG,
ping,lowB,downRight,DOWN,red,l,lowA,Stimuli\red_bar1.png,Stimuli\red_bar1.png,Stimuli\ping.png,midLeft,high,midRight,lowC,downLeft,upLeft,upRight,2,rew_low,m,,,,,0,44,44,58,,,0.5,0.7,exp,z,0,7.16,-7.16,-10.14,0,10.14,0,-7.16,-7.16,-7.16,7.16,7.16,7.16,4,244,30,4641,0.9395103999995627,244,245,9,RL,1,F,23,R,2025-04-18_14h20.42.973,RewSL_RL_EEG,
ping,lowA,midLeft,UP,green,r,high,Stimuli\green_bar1.png,Stimuli\green_bar1.png,Stimuli\ping.png,midRight,lowB,downRight,lowC,downLeft,upLeft,upRight,2,rew_low,z,,,,,0,45,45,29,,,0.5,0.7,exp,z,1,-10.14,0,10.14,0,7.16,-7.16,-7.16,-7.16,-7.16,7.16,7.16,7.16,4,114,30,4642,0.656237900009728,245,246,9,RL,1,F,23,R,2025-04-18_14h20.42.973,RewSL_RL_EEG,
ping,high,midRight,DOWN,green,r,lowA,Stimuli\green_bar1.png,Stimuli\green_bar1.png,Stimuli\ping.png,midLeft,lowB,downRight,lowC,downLeft,upLeft,upRight,2,rew_high,m,,,,,0,46,46,23,,,0.5,0.6,exp,z,0,10.14,0,-10.14,0,7.16,-7.16,-7.16,-7.16,-7.16,7.16,7.16,7.16,4,224,31,4642,0.8237927999871317,246,247,9,RL,1,F,23,R,2025-04-18_14h20.42.973,RewSL_RL_EEG,
ping,lowB,downRight,UP,green,r,lowA,Stimuli\green_bar1.png,Stimuli\green_bar1.png,Stimuli\ping.png,midLeft,high,midRight,lowC,downLeft,upLeft,upRight,2,rew_low,z,,,,,0,47,47,61,,,0.4,0.8,exp,z,1,7.16,-7.16,-10.14,0,10.14,0,-7.16,-7.16,-7.16,7.16,7.16,7.16,4,144,30,4643,0.6856193999992684,247,248,9,RL,1,F,23,R,2025-04-18_14h20.42.973,RewSL_RL_EEG,
ping,lowC,downLeft,DOWN,red,r,lowA,Stimuli\red_bar1.png,Stimuli\red_bar1.png,Stimuli\ping.png,midLeft,lowB,downRight,high,midRight,upLeft,upRight,2,rew_low,m,,,,,0,48,48,78,,,0.5,0.7,exp,m,1,-7.16,-7.16,-10.14,0,7.16,-7.16,10.14,0,-7.16,7.16,7.16,7.16,4,234,30,4644,0.822672499998589,248,249,9,RL,1,F,23,R,2025-04-18_14h20.42.973,RewSL_RL_EEG,
ping,lowC,downLeft,UP,red,r,lowA,Stimuli\red_bar1.png,Stimuli\red_bar1.png,Stimuli\ping.png,midLeft,lowB,downRight,high,midRight,upLeft,upRight,2,rew_low,z,,,,,0,49,49,84,,,0.6,0.6,exp,m,0,-7.16,-7.16,-10.14,0,7.16,-7.16,10.14,0,-7.16,7.16,7.16,7.16,4,134,30,4644,0.9558220000035362,249,250,9,RL,1,F,23,R,2025-04-18_14h20.42.973,RewSL_RL_EEG,
ping,high,midRight,UP,green,r,lowA,Stimuli\green_bar1.png,Stimuli\green_bar1.png,Stimuli\ping.png,midLeft,lowB,downRight,lowC,downLeft,upLeft,upRight,2,rew_high,z,,,,,0,50,50,13,,,0.5,0.7,exp,z,1,10.14,0,-10.14,0,7.16,-7.16,-7.16,-7.16,-7.16,7.16,7.16,7.16,4,124,31,4744,0.7438439000106882,250,251,9,RL,1,F,23,R,2025-04-18_14h20.42.973,RewSL_RL_EEG,
ping,lowB,downRight,UP,red,r,lowA,Stimuli\red_bar1.png,Stimuli\red_bar1.png,Stimuli\ping.png,midLeft,high,midRight,lowC,downLeft,upLeft,upRight,2,rew_low,z,,,,,0,51,51,60,,,0.4,0.6,exp,z,1,7.16,-7.16,-10.14,0,10.14,0,-7.16,-7.16,-7.16,7.16,7.16,7.16,4,144,30,4745,0.6308610999985831,251,252,9,RL,1,F,23,R,2025-04-18_14h20.42.973,RewSL_RL_EEG,
ping,lowA,midLeft,DOWN,red,l,high,Stimuli\red_bar1.png,Stimuli\red_bar1.png,Stimuli\ping.png,midRight,lowB,downRight,lowC,downLeft,upLeft,upRight,2,rew_low,m,,,,,0,52,52,34,,,0.5,0.7,exp,m,1,-10.14,0,10.14,0,7.16,-7.16,-7.16,-7.16,-7.16,7.16,7.16,7.16,4,214,30,4746,0.580678700003773,252,253,9,RL,1,F,23,R,2025-04-18_14h20.42.973,RewSL_RL_EEG,
ping,lowC,downLeft,DOWN,green,r,lowA,Stimuli\green_bar1.png,Stimuli\green_bar1.png,Stimuli\ping.png,midLeft,lowB,downRight,high,midRight,upLeft,upRight,2,rew_low,m,,,,,0,53,53,95,,,0.5,0.7,exp,m,1,-7.16,-7.16,-10.14,0,7.16,-7.16,10.14,0,-7.16,7.16,7.16,7.16,4,234,30,4747,0.6351548999955412,253,254,9,RL,1,F,23,R,2025-04-18_14h20.42.973,RewSL_RL_EEG,
ping,high,midRight,DOWN,red,l,lowA,Stimuli\red_bar1.png,Stimuli\red_bar1.png,Stimuli\ping.png,midLeft,lowB,downRight,lowC,downLeft,upLeft,upRight,2,rew_high,m,,,,,0,54,54,18,,,0.6,0.7,exp,m,1,10.14,0,-10.14,0,7.16,-7.16,-7.16,-7.16,-7.16,7.16,7.16,7.16,4,224,31,4847,0.5642243000038434,254,255,9,RL,1,F,23,R,2025-04-18_14h20.42.973,RewSL_RL_EEG,
ping,lowB,downRight,DOWN,red,l,lowA,Stimuli\red_bar1.png,Stimuli\red_bar1.png,Stimuli\ping.png,midLeft,high,midRight,lowC,downLeft,upLeft,upRight,2,rew_low,m,,,,,0,55,55,74,,,0.5,0.7,exp,m,1,7.16,-7.16,-10.14,0,10.14,0,-7.16,-7.16,-7.16,7.16,7.16,7.16,4,244,30,4848,0.5896114999923157,255,256,9,RL,1,F,23,R,2025-04-18_14h20.42.973,RewSL_RL_EEG,
ping,high,midRight,DOWN,green,r,lowA,Stimuli\green_bar1.png,Stimuli\green_bar1.png,Stimuli\ping.png,midLeft,lowB,downRight,lowC,downLeft,upLeft,upRight,2,rew_high,m,,,,,0,56,56,7,,,0.5,0.8,exp,m,1,10.14,0,-10.14,0,7.16,-7.16,-7.16,-7.16,-7.16,7.16,7.16,7.16,4,224,31,4948,0.5774830000009388,256,257,9,RL,1,F,23,R,2025-04-18_14h20.42.973,RewSL_RL_EEG,
ping,high,midRight,DOWN,green,l,lowA,Stimuli\green_bar1.png,Stimuli\green_bar1.png,Stimuli\ping.png,midLeft,lowB,downRight,lowC,downLeft,upLeft,upRight,2,rew_high,m,,,,,0,57,57,11,,,0.4,0.7,exp,m,1,10.14,0,-10.14,0,7.16,-7.16,-7.16,-7.16,-7.16,7.16,7.16,7.16,4,224,31,5048,0.6146787000034237,257,258,9,RL,1,F,23,R,2025-04-18_14h20.42.973,RewSL_RL_EEG,
ping,lowC,downLeft,UP,red,r,lowA,Stimuli\red_bar1.png,Stimuli\red_bar1.png,Stimuli\ping.png,midLeft,lowB,downRight,high,midRight,upLeft,upRight,2,rew_low,z,,,,,0,58,58,76,,,0.5,0.7,exp,z,1,-7.16,-7.16,-10.14,0,7.16,-7.16,10.14,0,-7.16,7.16,7.16,7.16,4,134,30,5049,0.8978341000038199,258,259,9,RL,1,F,23,R,2025-04-18_14h20.42.973,RewSL_RL_EEG,
ping,lowA,midLeft,UP,green,r,high,Stimuli\green_bar1.png,Stimuli\green_bar1.png,Stimuli\ping.png,midRight,lowB,downRight,lowC,downLeft,upLeft,upRight,2,rew_low,z,,,,,0,59,59,45,,,0.5,0.6,exp,z,1,-10.14,0,10.14,0,7.16,-7.16,-7.16,-7.16,-7.16,7.16,7.16,7.16,4,114,30,5050,0.848424800002249,259,260,9,RL,1,F,23,R,2025-04-18_14h20.42.973,RewSL_RL_EEG,
ping,lowA,midLeft,UP,green,l,high,Stimuli\green_bar1.png,Stimuli\green_bar1.png,Stimuli\ping.png,midRight,lowB,downRight,lowC,downLeft,upLeft,upRight,2,rew_low,z,,,,,0,60,60,33,,,0.4,0.7,exp,z,1,-10.14,0,10.14,0,7.16,-7.16,-7.16,-7.16,-7.16,7.16,7.16,7.16,4,114,30,5051,0.8559046000009403,260,261,9,RL,1,F,23,R,2025-04-18_14h20.42.973,RewSL_RL_EEG,
ping,lowB,downRight,DOWN,red,r,lowA,Stimuli\red_bar1.png,Stimuli\red_bar1.png,Stimuli\ping.png,midLeft,high,midRight,lowC,downLeft,upLeft,upRight,2,rew_low,m,,,,,0,61,61,54,,,0.5,0.7,exp,m,1,7.16,-7.16,-10.14,0,10.14,0,-7.16,-7.16,-7.16,7.16,7.16,7.16,4,244,30,5052,0.6240378999937093,261,262,9,RL,1,F,23,R,2025-04-18_14h20.42.973,RewSL_RL_EEG,
ping,lowC,downLeft,UP,green,r,lowA,Stimuli\green_bar1.png,Stimuli\green_bar1.png,Stimuli\ping.png,midLeft,lowB,downRight,high,midRight,upLeft,upRight,2,rew_low,z,,,,,0,62,62,93,,,0.5,0.8,exp,z,1,-7.16,-7.16,-10.14,0,7.16,-7.16,10.14,0,-7.16,7.16,7.16,7.16,4,134,30,5053,0.7445552999997744,262,263,9,RL,1,F,23,R,2025-04-18_14h20.42.973,RewSL_RL_EEG,
ping,lowA,midLeft,DOWN,red,r,high,Stimuli\red_bar1.png,Stimuli\red_bar1.png,Stimuli\ping.png,midRight,lowB,downRight,lowC,downLeft,upLeft,upRight,2,rew_low,m,,,,,0,63,63,46,,,0.5,0.7,exp,m,1,-10.14,0,10.14,0,7.16,-7.16,-7.16,-7.16,-7.16,7.16,7.16,7.16,4,214,30,5054,0.8520468999922741,263,264,9,RL,1,F,23,R,2025-04-18_14h20.42.973,RewSL_RL_EEG,
ping,high,midRight,DOWN,green,r,lowA,Stimuli\green_bar1.png,Stimuli\green_bar1.png,Stimuli\ping.png,midLeft,lowB,downRight,lowC,downLeft,upLeft,upRight,2,rew_high,m,,,,,0,64,64,15,,,0.5,0.6,exp,m,1,10.14,0,-10.14,0,7.16,-7.16,-7.16,-7.16,-7.16,7.16,7.16,7.16,4,224,31,5154,1.0269681000063429,264,265,9,RL,1,F,23,R,2025-04-18_14h20.42.973,RewSL_RL_EEG,
ping,high,midRight,UP,green,r,lowA,Stimuli\green_bar1.png,Stimuli\green_bar1.png,Stimuli\ping.png,midLeft,lowB,downRight,lowC,downLeft,upLeft,upRight,2,rew_high,z,,,,,0,65,65,21,,,0.6,0.6,exp,m,0,10.14,0,-10.14,0,7.16,-7.16,-7.16,-7.16,-7.16,7.16,7.16,7.16,4,124,31,5154,0.5517442999989726,265,266,9,RL,1,F,23,R,2025-04-18_14h20.42.973,RewSL_RL_EEG,
ping,lowB,downRight,UP,green,r,lowA,Stimuli\green_bar1.png,Stimuli\green_bar1.png,Stimuli\ping.png,midLeft,high,midRight,lowC,downLeft,upLeft,upRight,2,rew_low,z,,,,,0,66,66,69,,,0.4,0.7,exp,z,1,7.16,-7.16,-10.14,0,10.14,0,-7.16,-7.16,-7.16,7.16,7.16,7.16,4,144,30,5155,0.6558236999990186,266,267,9,RL,1,F,23,R,2025-04-18_14h20.42.973,RewSL_RL_EEG,
ping,high,midRight,DOWN,green,l,lowA,Stimuli\green_bar1.png,Stimuli\green_bar1.png,Stimuli\ping.png,midLeft,lowB,downRight,lowC,downLeft,upLeft,upRight,2,rew_high,m,,,,,0,67,67,3,,,0.4,0.7,exp,m,1,10.14,0,-10.14,0,7.16,-7.16,-7.16,-7.16,-7.16,7.16,7.16,7.16,4,224,31,5255,0.8813043999980437,267,268,9,RL,1,F,23,R,2025-04-18_14h20.42.973,RewSL_RL_EEG,
ping,lowB,downRight,DOWN,green,r,lowA,Stimuli\green_bar1.png,Stimuli\green_bar1.png,Stimuli\ping.png,midLeft,high,midRight,lowC,downLeft,upLeft,upRight,2,rew_low,m,,,,,0,68,68,63,,,0.6,0.7,exp,m,1,7.16,-7.16,-10.14,0,10.14,0,-7.16,-7.16,-7.16,7.16,7.16,7.16,4,244,30,5256,0.7222615000064252,268,269,9,RL,1,F,23,R,2025-04-18_14h20.42.973,RewSL_RL_EEG,
ping,lowA,midLeft,UP,green,l,high,Stimuli\green_bar1.png,Stimuli\green_bar1.png,Stimuli\ping.png,midRight,lowB,downRight,lowC,downLeft,upLeft,upRight,2,rew_low,z,,,,,0,69,69,41,,,0.6,0.7,exp,z,1,-10.14,0,10.14,0,7.16,-7.16,-7.16,-7.16,-7.16,7.16,7.16,7.16,4,114,30,5257,0.6524765999929514,269,270,9,RL,1,F,23,R,2025-04-18_14h20.42.973,RewSL_RL_EEG,
ping,lowA,midLeft,UP,green,l,high,Stimuli\green_bar1.png,Stimuli\green_bar1.png,Stimuli\ping.png,midRight,lowB,downRight,lowC,downLeft,upLeft,upRight,2,rew_low,z,,,,,0,70,70,25,,,0.6,0.6,exp,z,1,-10.14,0,10.14,0,7.16,-7.16,-7.16,-7.16,-7.16,7.16,7.16,7.16,4,114,30,5258,0.7269066000008024,270,271,9,RL,1,F,23,R,2025-04-18_14h20.42.973,RewSL_RL_EEG,
ping,lowC,downLeft,UP,green,r,lowA,Stimuli\green_bar1.png,Stimuli\green_bar1.png,Stimuli\ping.png,midLeft,lowB,downRight,high,midRight,upLeft,upRight,2,rew_low,z,,,,,0,71,71,85,,,0.5,0.7,exp,m,0,-7.16,-7.16,-10.14,0,7.16,-7.16,10.14,0,-7.16,7.16,7.16,7.16,4,134,30,5258,1.0228476000047522,271,272,9,RL,1,F,23,R,2025-04-18_14h20.42.973,RewSL_RL_EEG,
